"Event_Index","Local_Timestamp","Local_Timezone","Local_Date","Participant_Public_ID","Participant_Private_ID","Participant_Starting_Group","Participant_Status","Participant_Completion_Code","Participant_External_Session_ID","Participant_Device_Type","Participant_Device","Participant_OS","Participant_Browser","Participant_Monitor_Size","Participant_Viewport_Size","randomiser_bod5","Spreadsheet","Spreadsheet_Name","Spreadsheet_Row","Trial_Number","Screen_Number","Screen_Name","Zone_Name","Zone_Type","Reaction_Time","Reaction_Onset","Response_Type","Response","Attempt","display","Diagram_Box_Require_Response"
"1",1617266833058,2,"01/04/2021 10:47:13","BLIND",1192850,NA,"complete",NA,NA,"computer","Desktop or Laptop","Windows 10","Firefox 45.0","1680x1050","1668x949","Botox","BotoxPart1_Text-Diagram","",NA,"BEGIN TASK",NA,"","","",NA,NA,NA,"","","",NA
"10",1617267048383,2,"01/04/2021 10:50:48","BLIND",1192850,NA,"complete",NA,NA,"computer","Desktop or Laptop","Windows 10","Firefox 45.0","1680x1050","1668x949","Botox","BotoxPart1_Text-Diagram","",NA,"END TASK",NA,"","","",215325,NA,NA,"","","",NA
"2",1617266939994,2,"01/04/2021 10:48:59","BLIND",1192850,NA,"complete",NA,NA,"computer","Desktop or Laptop","Windows 10","Firefox 45.0","1680x1050","1668x949","Botox","BotoxPart1_Text-Diagram","BotoxPart1_Text-Diagram",1,"1",1,"Text","advancementZone","continue_button",89768.6725,NA,NA,"","","BotoxText",NA
"3",1617266941337,2,"01/04/2021 10:49:01","BLIND",1192850,NA,"complete",NA,NA,"computer","Desktop or Laptop","Windows 10","Firefox 45.0","1680x1050","1668x949","Botox","BotoxPart1_Text-Diagram","BotoxPart1_Text-Diagram",2,"1",1,"JoL1","Three","response_button_text",89768.6725,NA,NA,"2","1","BotoxJoL1",NA
"4",1617267048374,2,"01/04/2021 10:50:48","BLIND",1192850,NA,"complete",NA,NA,"computer","Desktop or Laptop","Windows 10","Firefox 45.0","1680x1050","1668x949","Botox","BotoxPart1_Text-Diagram","BotoxPart1_Text-Diagram",3,"1",1,"Diagram","DiagBox3","response_text_area",89768.6725,NA,NA,"0SNKvswB","","BotoxDiagram",NA
"5",1617267048375,2,"01/04/2021 10:50:48","BLIND",1192850,NA,"complete",NA,NA,"computer","Desktop or Laptop","Windows 10","Firefox 45.0","1680x1050","1668x949","Botox","BotoxPart1_Text-Diagram","BotoxPart1_Text-Diagram",3,"1",1,"Diagram","DiagBox4","response_text_area",89768.6725,NA,NA,"2qU","","BotoxDiagram",NA
"6",1617267048376,2,"01/04/2021 10:50:48","BLIND",1192850,NA,"complete",NA,NA,"computer","Desktop or Laptop","Windows 10","Firefox 45.0","1680x1050","1668x949","Botox","BotoxPart1_Text-Diagram","BotoxPart1_Text-Diagram",3,"1",1,"Diagram","DiagBox2","response_text_area",89768.6725,NA,NA,"dKHnDMf","","BotoxDiagram",NA
"7",1617267048376,2,"01/04/2021 10:50:48","BLIND",1192850,NA,"complete",NA,NA,"computer","Desktop or Laptop","Windows 10","Firefox 45.0","1680x1050","1668x949","Botox","BotoxPart1_Text-Diagram","BotoxPart1_Text-Diagram",3,"1",1,"Diagram","DiagBox1","response_text_area",89768.6725,NA,NA,"qcuVg","","BotoxDiagram",NA
"8",1617267048376,2,"01/04/2021 10:50:48","BLIND",1192850,NA,"complete",NA,NA,"computer","Desktop or Laptop","Windows 10","Firefox 45.0","1680x1050","1668x949","Botox","BotoxPart1_Text-Diagram","BotoxPart1_Text-Diagram",3,"1",1,"Diagram","Zone1","continue_button",89768.6725,NA,NA,"","","BotoxDiagram",NA
"9",1617267048377,2,"01/04/2021 10:50:48","BLIND",1192850,NA,"complete",NA,NA,"computer","Desktop or Laptop","Windows 10","Firefox 45.0","1680x1050","1668x949","Botox","BotoxPart1_Text-Diagram","",NA,"",NA,"","","",89768.6725,NA,NA,"","Vroeger gebruikt tegen samentrekking van bepaalde spieren. ,Tegenwoordig gebruikt bij plastische chirurgie, bijv. rimpels glad strijken. ,Je ziet er jonger uit. ,Je hele gezichtsuitdrukking wordt veranderd. ","",NA
"1",1617281611057,2,"01/04/2021 14:53:31","BLIND",2409206,NA,"complete",NA,NA,"computer","Desktop or Laptop","Windows 10","Firefox 45.0","1680x1050","1668x949","Botox","BotoxPart1_Text-Diagram","",NA,"BEGIN TASK",NA,"","","",NA,NA,NA,"","","",NA
"10",1617281711578,2,"01/04/2021 14:55:11","BLIND",2409206,NA,"complete",NA,NA,"computer","Desktop or Laptop","Windows 10","Firefox 45.0","1680x1050","1668x949","Botox","BotoxPart1_Text-Diagram","",NA,"END TASK",NA,"","","",100521,NA,NA,"","","",NA
"2",1617281669884,2,"01/04/2021 14:54:29","BLIND",2409206,NA,"complete",NA,NA,"computer","Desktop or Laptop","Windows 10","Firefox 45.0","1680x1050","1668x949","Botox","BotoxPart1_Text-Diagram","BotoxPart1_Text-Diagram",1,"1",1,"Text","advancementZone","continue_button",89768.6725,NA,NA,"","","BotoxText",NA
"3",1617281671145,2,"01/04/2021 14:54:31","BLIND",2409206,NA,"complete",NA,NA,"computer","Desktop or Laptop","Windows 10","Firefox 45.0","1680x1050","1668x949","Botox","BotoxPart1_Text-Diagram","BotoxPart1_Text-Diagram",2,"1",1,"JoL1","Two","response_button_text",89768.6725,NA,NA,"2","1","BotoxJoL1",NA
"4",1617281711563,2,"01/04/2021 14:55:11","BLIND",2409206,NA,"complete",NA,NA,"computer","Desktop or Laptop","Windows 10","Firefox 45.0","1680x1050","1668x949","Botox","BotoxPart1_Text-Diagram","BotoxPart1_Text-Diagram",3,"1",1,"Diagram","DiagBox3","response_text_area",89768.6725,NA,NA,"ol7FfPKB","","BotoxDiagram",NA
"5",1617281711565,2,"01/04/2021 14:55:11","BLIND",2409206,NA,"complete",NA,NA,"computer","Desktop or Laptop","Windows 10","Firefox 45.0","1680x1050","1668x949","Botox","BotoxPart1_Text-Diagram","BotoxPart1_Text-Diagram",3,"1",1,"Diagram","DiagBox4","response_text_area",89768.6725,NA,NA,"?","","BotoxDiagram",NA
"6",1617281711565,2,"01/04/2021 14:55:11","BLIND",2409206,NA,"complete",NA,NA,"computer","Desktop or Laptop","Windows 10","Firefox 45.0","1680x1050","1668x949","Botox","BotoxPart1_Text-Diagram","BotoxPart1_Text-Diagram",3,"1",1,"Diagram","DiagBox2","response_text_area",89768.6725,NA,NA,"JDj08dynE","","BotoxDiagram",NA
"7",1617281711565,2,"01/04/2021 14:55:11","BLIND",2409206,NA,"complete",NA,NA,"computer","Desktop or Laptop","Windows 10","Firefox 45.0","1680x1050","1668x949","Botox","BotoxPart1_Text-Diagram","BotoxPart1_Text-Diagram",3,"1",1,"Diagram","DiagBox1","response_text_area",89768.6725,NA,NA,"hQ3tMY","","BotoxDiagram",NA
"8",1617281711566,2,"01/04/2021 14:55:11","BLIND",2409206,NA,"complete",NA,NA,"computer","Desktop or Laptop","Windows 10","Firefox 45.0","1680x1050","1668x949","Botox","BotoxPart1_Text-Diagram","BotoxPart1_Text-Diagram",3,"1",1,"Diagram","Zone1","continue_button",89768.6725,NA,NA,"","","BotoxDiagram",NA
"9",1617281711566,2,"01/04/2021 14:55:11","BLIND",2409206,NA,"complete",NA,NA,"computer","Desktop or Laptop","Windows 10","Firefox 45.0","1680x1050","1668x949","Botox","BotoxPart1_Text-Diagram","",NA,"",NA,"","","",89768.6725,NA,NA,"","de spier wordt verlamd,de huid wordt hierdoor glad gestreken,mensen zien er jonger uit,?","",NA
"1",1617032903181,2,"29/03/2021 17:48:23","BLIND",3809340,NA,"complete",NA,NA,"computer","Desktop or Laptop","Windows 10","Firefox 45.0","1680x1050","1668x949","Botox","BotoxPart1_Text-Diagram","",NA,"BEGIN TASK",NA,"","","",NA,NA,NA,"","","",NA
"10",1617033026561,2,"29/03/2021 17:50:26","BLIND",3809340,NA,"complete",NA,NA,"computer","Desktop or Laptop","Windows 10","Firefox 45.0","1680x1050","1668x949","Botox","BotoxPart1_Text-Diagram","",NA,"END TASK",NA,"","","",123380,NA,NA,"","","",NA
"2",1617032950442,2,"29/03/2021 17:49:10","BLIND",3809340,NA,"complete",NA,NA,"computer","Desktop or Laptop","Windows 10","Firefox 45.0","1680x1050","1668x949","Botox","BotoxPart1_Text-Diagram","BotoxPart1_Text-Diagram",1,"1",1,"Text","advancementZone","continue_button",89768.6725,NA,NA,"","","BotoxText",NA
"3",1617032951896,2,"29/03/2021 17:49:11","BLIND",3809340,NA,"complete",NA,NA,"computer","Desktop or Laptop","Windows 10","Firefox 45.0","1680x1050","1668x949","Botox","BotoxPart1_Text-Diagram","BotoxPart1_Text-Diagram",2,"1",1,"JoL1","Two","response_button_text",89768.6725,NA,NA,"2","1","BotoxJoL1",NA
"4",1617033026550,2,"29/03/2021 17:50:26","BLIND",3809340,NA,"complete",NA,NA,"computer","Desktop or Laptop","Windows 10","Firefox 45.0","1680x1050","1668x949","Botox","BotoxPart1_Text-Diagram","BotoxPart1_Text-Diagram",3,"1",1,"Diagram","DiagBox3","response_text_area",89768.6725,NA,NA,"9aJ8l","","BotoxDiagram",NA
"5",1617033026552,2,"29/03/2021 17:50:26","BLIND",3809340,NA,"complete",NA,NA,"computer","Desktop or Laptop","Windows 10","Firefox 45.0","1680x1050","1668x949","Botox","BotoxPart1_Text-Diagram","BotoxPart1_Text-Diagram",3,"1",1,"Diagram","DiagBox4","response_text_area",89768.6725,NA,NA,"vxxXMX","","BotoxDiagram",NA
"6",1617033026552,2,"29/03/2021 17:50:26","BLIND",3809340,NA,"complete",NA,NA,"computer","Desktop or Laptop","Windows 10","Firefox 45.0","1680x1050","1668x949","Botox","BotoxPart1_Text-Diagram","BotoxPart1_Text-Diagram",3,"1",1,"Diagram","DiagBox2","response_text_area",89768.6725,NA,NA,"W9LY0Xv08Q","","BotoxDiagram",NA
"7",1617033026553,2,"29/03/2021 17:50:26","BLIND",3809340,NA,"complete",NA,NA,"computer","Desktop or Laptop","Windows 10","Firefox 45.0","1680x1050","1668x949","Botox","BotoxPart1_Text-Diagram","BotoxPart1_Text-Diagram",3,"1",1,"Diagram","DiagBox1","response_text_area",89768.6725,NA,NA,"IW2P3Xhj","","BotoxDiagram",NA
"8",1617033026553,2,"29/03/2021 17:50:26","BLIND",3809340,NA,"complete",NA,NA,"computer","Desktop or Laptop","Windows 10","Firefox 45.0","1680x1050","1668x949","Botox","BotoxPart1_Text-Diagram","BotoxPart1_Text-Diagram",3,"1",1,"Diagram","Zone1","continue_button",89768.6725,NA,NA,"","","BotoxDiagram",NA
"9",1617033026553,2,"29/03/2021 17:50:26","BLIND",3809340,NA,"complete",NA,NA,"computer","Desktop or Laptop","Windows 10","Firefox 45.0","1680x1050","1668x949","Botox","BotoxPart1_Text-Diagram","",NA,"",NA,"","","",89768.6725,NA,NA,"","Hierdoor verlamt de spier,Hierdoor trekken de spieren in het gezicht niet meer samen,Dit wordt gebruikt bij spieren die overmatig vaak samentrekken,Doordat de spier niet meer samentrekt, verwijden de rimpels in het gezicht. ","",NA
"1",1617005820895,2,"29/03/2021 10:17:00","BLIND",4193578,NA,"complete",NA,NA,"computer","Desktop or Laptop","Windows 10","Firefox 45.0","1680x1050","1668x949","Botox","BotoxPart1_Text-Diagram","",NA,"BEGIN TASK",NA,"","","",NA,NA,NA,"","","",NA
"10",1617005970185,2,"29/03/2021 10:19:30","BLIND",4193578,NA,"complete",NA,NA,"computer","Desktop or Laptop","Windows 10","Firefox 45.0","1680x1050","1668x949","Botox","BotoxPart1_Text-Diagram","",NA,"END TASK",NA,"","","",149290,NA,NA,"","","",NA
"2",1617005880856,2,"29/03/2021 10:18:00","BLIND",4193578,NA,"complete",NA,NA,"computer","Desktop or Laptop","Windows 10","Firefox 45.0","1680x1050","1668x949","Botox","BotoxPart1_Text-Diagram","BotoxPart1_Text-Diagram",1,"1",1,"Text","advancementZone","continue_button",89768.6725,NA,NA,"","","BotoxText",NA
"3",1617005882550,2,"29/03/2021 10:18:02","BLIND",4193578,NA,"complete",NA,NA,"computer","Desktop or Laptop","Windows 10","Firefox 45.0","1680x1050","1668x949","Botox","BotoxPart1_Text-Diagram","BotoxPart1_Text-Diagram",2,"1",1,"JoL1","Two","response_button_text",89768.6725,NA,NA,"2","1","BotoxJoL1",NA
"4",1617005970173,2,"29/03/2021 10:19:30","BLIND",4193578,NA,"complete",NA,NA,"computer","Desktop or Laptop","Windows 10","Firefox 45.0","1680x1050","1668x949","Botox","BotoxPart1_Text-Diagram","BotoxPart1_Text-Diagram",3,"1",1,"Diagram","DiagBox3","response_text_area",89768.6725,NA,NA,"VOx","","BotoxDiagram",NA
"5",1617005970175,2,"29/03/2021 10:19:30","BLIND",4193578,NA,"complete",NA,NA,"computer","Desktop or Laptop","Windows 10","Firefox 45.0","1680x1050","1668x949","Botox","BotoxPart1_Text-Diagram","BotoxPart1_Text-Diagram",3,"1",1,"Diagram","DiagBox4","response_text_area",89768.6725,NA,NA,"aq","","BotoxDiagram",NA
"6",1617005970176,2,"29/03/2021 10:19:30","BLIND",4193578,NA,"complete",NA,NA,"computer","Desktop or Laptop","Windows 10","Firefox 45.0","1680x1050","1668x949","Botox","BotoxPart1_Text-Diagram","BotoxPart1_Text-Diagram",3,"1",1,"Diagram","DiagBox2","response_text_area",89768.6725,NA,NA,"?","","BotoxDiagram",NA
"7",1617005970176,2,"29/03/2021 10:19:30","BLIND",4193578,NA,"complete",NA,NA,"computer","Desktop or Laptop","Windows 10","Firefox 45.0","1680x1050","1668x949","Botox","BotoxPart1_Text-Diagram","BotoxPart1_Text-Diagram",3,"1",1,"Diagram","DiagBox1","response_text_area",89768.6725,NA,NA,"iGAFs","","BotoxDiagram",NA
"8",1617005970176,2,"29/03/2021 10:19:30","BLIND",4193578,NA,"complete",NA,NA,"computer","Desktop or Laptop","Windows 10","Firefox 45.0","1680x1050","1668x949","Botox","BotoxPart1_Text-Diagram","BotoxPart1_Text-Diagram",3,"1",1,"Diagram","Zone1","continue_button",89768.6725,NA,NA,"","","BotoxDiagram",NA
"9",1617005970177,2,"29/03/2021 10:19:30","BLIND",4193578,NA,"complete",NA,NA,"computer","Desktop or Laptop","Windows 10","Firefox 45.0","1680x1050","1668x949","Botox","BotoxPart1_Text-Diagram","",NA,"",NA,"","","",89768.6725,NA,NA,"","spieren worden verlamd en zullen niet meer samentrekken ,?,minder rimpels,ongewenste gezichtsuitdrukkingen","",NA
"1",1617120166091,2,"30/03/2021 18:02:46","BLIND",4700522,NA,"complete",NA,NA,"computer","Desktop or Laptop","Windows 10","Firefox 45.0","1680x1050","1668x949","Botox","BotoxPart1_Text-Diagram","",NA,"BEGIN TASK",NA,"","","",NA,NA,NA,"","","",NA
"10",1617120378414,2,"30/03/2021 18:06:18","BLIND",4700522,NA,"complete",NA,NA,"computer","Desktop or Laptop","Windows 10","Firefox 45.0","1680x1050","1668x949","Botox","BotoxPart1_Text-Diagram","",NA,"END TASK",NA,"","","",212323,NA,NA,"","","",NA
"2",1617120255100,2,"30/03/2021 18:04:15","BLIND",4700522,NA,"complete",NA,NA,"computer","Desktop or Laptop","Windows 10","Firefox 45.0","1680x1050","1668x949","Botox","BotoxPart1_Text-Diagram","BotoxPart1_Text-Diagram",1,"1",1,"Text","advancementZone","continue_button",89768.6725,NA,NA,"","","BotoxText",NA
"3",1617120259387,2,"30/03/2021 18:04:19","BLIND",4700522,NA,"complete",NA,NA,"computer","Desktop or Laptop","Windows 10","Firefox 45.0","1680x1050","1668x949","Botox","BotoxPart1_Text-Diagram","BotoxPart1_Text-Diagram",2,"1",1,"JoL1","Three","response_button_text",89768.6725,NA,NA,"2","1","BotoxJoL1",NA
"4",1617120378409,2,"30/03/2021 18:06:18","BLIND",4700522,NA,"complete",NA,NA,"computer","Desktop or Laptop","Windows 10","Firefox 45.0","1680x1050","1668x949","Botox","BotoxPart1_Text-Diagram","BotoxPart1_Text-Diagram",3,"1",1,"Diagram","DiagBox3","response_text_area",89768.6725,NA,NA,"SJLrbO","","BotoxDiagram",NA
"5",1617120378411,2,"30/03/2021 18:06:18","BLIND",4700522,NA,"complete",NA,NA,"computer","Desktop or Laptop","Windows 10","Firefox 45.0","1680x1050","1668x949","Botox","BotoxPart1_Text-Diagram","BotoxPart1_Text-Diagram",3,"1",1,"Diagram","DiagBox4","response_text_area",89768.6725,NA,NA,"JFl4o","","BotoxDiagram",NA
"6",1617120378411,2,"30/03/2021 18:06:18","BLIND",4700522,NA,"complete",NA,NA,"computer","Desktop or Laptop","Windows 10","Firefox 45.0","1680x1050","1668x949","Botox","BotoxPart1_Text-Diagram","BotoxPart1_Text-Diagram",3,"1",1,"Diagram","DiagBox2","response_text_area",89768.6725,NA,NA,"7Mj","","BotoxDiagram",NA
"7",1617120378412,2,"30/03/2021 18:06:18","BLIND",4700522,NA,"complete",NA,NA,"computer","Desktop or Laptop","Windows 10","Firefox 45.0","1680x1050","1668x949","Botox","BotoxPart1_Text-Diagram","BotoxPart1_Text-Diagram",3,"1",1,"Diagram","DiagBox1","response_text_area",89768.6725,NA,NA,"Xt7Q","","BotoxDiagram",NA
"8",1617120378412,2,"30/03/2021 18:06:18","BLIND",4700522,NA,"complete",NA,NA,"computer","Desktop or Laptop","Windows 10","Firefox 45.0","1680x1050","1668x949","Botox","BotoxPart1_Text-Diagram","BotoxPart1_Text-Diagram",3,"1",1,"Diagram","Zone1","continue_button",89768.6725,NA,NA,"","","BotoxDiagram",NA
"9",1617120378413,2,"30/03/2021 18:06:18","BLIND",4700522,NA,"complete",NA,NA,"computer","Desktop or Laptop","Windows 10","Firefox 45.0","1680x1050","1668x949","Botox","BotoxPart1_Text-Diagram","",NA,"",NA,"","","",89768.6725,NA,NA,"","Botox werd eerst gebruikt voor samentrekkende spieren.,Nu wordt botox gebruikt voor spieren in het gezicht.,Rimpels worden weggehaald op het voorhoofd.,Het gelaat kan onbewust veranderen.","",NA
"1",1617194724399,2,"31/03/2021 14:45:24","BLIND",5454513,NA,"complete",NA,NA,"computer","Desktop or Laptop","Windows 10","Firefox 45.0","1680x1050","1668x949","Botox","BotoxPart1_Text-Diagram","",NA,"BEGIN TASK",NA,"","","",NA,NA,NA,"","","",NA
"10",1617194948475,2,"31/03/2021 14:49:08","BLIND",5454513,NA,"complete",NA,NA,"computer","Desktop or Laptop","Windows 10","Firefox 45.0","1680x1050","1668x949","Botox","BotoxPart1_Text-Diagram","",NA,"END TASK",NA,"","","",224076,NA,NA,"","","",NA
"2",1617194817354,2,"31/03/2021 14:46:57","BLIND",5454513,NA,"complete",NA,NA,"computer","Desktop or Laptop","Windows 10","Firefox 45.0","1680x1050","1668x949","Botox","BotoxPart1_Text-Diagram","BotoxPart1_Text-Diagram",1,"1",1,"Text","advancementZone","continue_button",89768.6725,NA,NA,"","","BotoxText",NA
"3",1617194820744,2,"31/03/2021 14:47:00","BLIND",5454513,NA,"complete",NA,NA,"computer","Desktop or Laptop","Windows 10","Firefox 45.0","1680x1050","1668x949","Botox","BotoxPart1_Text-Diagram","BotoxPart1_Text-Diagram",2,"1",1,"JoL1","Three","response_button_text",89768.6725,NA,NA,"2","1","BotoxJoL1",NA
"4",1617194948465,2,"31/03/2021 14:49:08","BLIND",5454513,NA,"complete",NA,NA,"computer","Desktop or Laptop","Windows 10","Firefox 45.0","1680x1050","1668x949","Botox","BotoxPart1_Text-Diagram","BotoxPart1_Text-Diagram",3,"1",1,"Diagram","DiagBox3","response_text_area",89768.6725,NA,NA,"olf","","BotoxDiagram",NA
"5",1617194948468,2,"31/03/2021 14:49:08","BLIND",5454513,NA,"complete",NA,NA,"computer","Desktop or Laptop","Windows 10","Firefox 45.0","1680x1050","1668x949","Botox","BotoxPart1_Text-Diagram","BotoxPart1_Text-Diagram",3,"1",1,"Diagram","DiagBox4","response_text_area",89768.6725,NA,NA,"p7AtOqCir","","BotoxDiagram",NA
"6",1617194948468,2,"31/03/2021 14:49:08","BLIND",5454513,NA,"complete",NA,NA,"computer","Desktop or Laptop","Windows 10","Firefox 45.0","1680x1050","1668x949","Botox","BotoxPart1_Text-Diagram","BotoxPart1_Text-Diagram",3,"1",1,"Diagram","DiagBox2","response_text_area",89768.6725,NA,NA,"gR7vf5HN","","BotoxDiagram",NA
"7",1617194948468,2,"31/03/2021 14:49:08","BLIND",5454513,NA,"complete",NA,NA,"computer","Desktop or Laptop","Windows 10","Firefox 45.0","1680x1050","1668x949","Botox","BotoxPart1_Text-Diagram","BotoxPart1_Text-Diagram",3,"1",1,"Diagram","DiagBox1","response_text_area",89768.6725,NA,NA,"AqjU4nYbRU","","BotoxDiagram",NA
"8",1617194948468,2,"31/03/2021 14:49:08","BLIND",5454513,NA,"complete",NA,NA,"computer","Desktop or Laptop","Windows 10","Firefox 45.0","1680x1050","1668x949","Botox","BotoxPart1_Text-Diagram","BotoxPart1_Text-Diagram",3,"1",1,"Diagram","Zone1","continue_button",89768.6725,NA,NA,"","","BotoxDiagram",NA
"9",1617194948469,2,"31/03/2021 14:49:08","BLIND",5454513,NA,"complete",NA,NA,"computer","Desktop or Laptop","Windows 10","Firefox 45.0","1680x1050","1668x949","Botox","BotoxPart1_Text-Diagram","",NA,"",NA,"","","",89768.6725,NA,NA,"","Dit kan ingespoten worden rondom de ogen,Dit blokkeert het aanspannen van de spieren rondom de ogen,Men ziet er jonger uit,Rimpels verdwijnen","",NA
"1",1617270787818,2,"01/04/2021 11:53:07","BLIND",6606908,NA,"complete",NA,NA,"computer","Desktop or Laptop","Windows 10","Firefox 45.0","1680x1050","1668x949","Botox","BotoxPart1_Text-Diagram","",NA,"BEGIN TASK",NA,"","","",NA,NA,NA,"","","",NA
"10",1617270907216,2,"01/04/2021 11:55:07","BLIND",6606908,NA,"complete",NA,NA,"computer","Desktop or Laptop","Windows 10","Firefox 45.0","1680x1050","1668x949","Botox","BotoxPart1_Text-Diagram","",NA,"END TASK",NA,"","","",119398,NA,NA,"","","",NA
"2",1617270850067,2,"01/04/2021 11:54:10","BLIND",6606908,NA,"complete",NA,NA,"computer","Desktop or Laptop","Windows 10","Firefox 45.0","1680x1050","1668x949","Botox","BotoxPart1_Text-Diagram","BotoxPart1_Text-Diagram",1,"1",1,"Text","advancementZone","continue_button",89768.6725,NA,NA,"","","BotoxText",NA
"3",1617270851049,2,"01/04/2021 11:54:11","BLIND",6606908,NA,"complete",NA,NA,"computer","Desktop or Laptop","Windows 10","Firefox 45.0","1680x1050","1668x949","Botox","BotoxPart1_Text-Diagram","BotoxPart1_Text-Diagram",2,"1",1,"JoL1","One","response_button_text",89768.6725,NA,NA,"2","1","BotoxJoL1",NA
"4",1617270907208,2,"01/04/2021 11:55:07","BLIND",6606908,NA,"complete",NA,NA,"computer","Desktop or Laptop","Windows 10","Firefox 45.0","1680x1050","1668x949","Botox","BotoxPart1_Text-Diagram","BotoxPart1_Text-Diagram",3,"1",1,"Diagram","DiagBox3","response_text_area",89768.6725,NA,NA,"VRaX2d","","BotoxDiagram",NA
"5",1617270907209,2,"01/04/2021 11:55:07","BLIND",6606908,NA,"complete",NA,NA,"computer","Desktop or Laptop","Windows 10","Firefox 45.0","1680x1050","1668x949","Botox","BotoxPart1_Text-Diagram","BotoxPart1_Text-Diagram",3,"1",1,"Diagram","DiagBox4","response_text_area",89768.6725,NA,NA,"8FeimNEFc","","BotoxDiagram",NA
"6",1617270907209,2,"01/04/2021 11:55:07","BLIND",6606908,NA,"complete",NA,NA,"computer","Desktop or Laptop","Windows 10","Firefox 45.0","1680x1050","1668x949","Botox","BotoxPart1_Text-Diagram","BotoxPart1_Text-Diagram",3,"1",1,"Diagram","DiagBox2","response_text_area",89768.6725,NA,NA,"?","","BotoxDiagram",NA
"7",1617270907210,2,"01/04/2021 11:55:07","BLIND",6606908,NA,"complete",NA,NA,"computer","Desktop or Laptop","Windows 10","Firefox 45.0","1680x1050","1668x949","Botox","BotoxPart1_Text-Diagram","BotoxPart1_Text-Diagram",3,"1",1,"Diagram","DiagBox1","response_text_area",89768.6725,NA,NA,"a1piUQMvGM","","BotoxDiagram",NA
"8",1617270907210,2,"01/04/2021 11:55:07","BLIND",6606908,NA,"complete",NA,NA,"computer","Desktop or Laptop","Windows 10","Firefox 45.0","1680x1050","1668x949","Botox","BotoxPart1_Text-Diagram","BotoxPart1_Text-Diagram",3,"1",1,"Diagram","Zone1","continue_button",89768.6725,NA,NA,"","","BotoxDiagram",NA
"9",1617270907210,2,"01/04/2021 11:55:07","BLIND",6606908,NA,"complete",NA,NA,"computer","Desktop or Laptop","Windows 10","Firefox 45.0","1680x1050","1668x949","Botox","BotoxPart1_Text-Diagram","",NA,"",NA,"","","",89768.6725,NA,NA,"","Hierdoor ontspannen de spieren.,?,Hierdoor zien mensen er jonger uit.,Hierdoor kan je gelaat er ook (ongewenst) anders uit gaan zien","",NA
"1",1617287388711,2,"01/04/2021 16:29:48","BLIND",7029694,NA,"complete",NA,NA,"computer","Desktop or Laptop","Windows 10","Firefox 45.0","1680x1050","1668x949","Botox","BotoxPart1_Text-Diagram","",NA,"BEGIN TASK",NA,"","","",NA,NA,NA,"","","",NA
"10",1617287718266,2,"01/04/2021 16:35:18","BLIND",7029694,NA,"complete",NA,NA,"computer","Desktop or Laptop","Windows 10","Firefox 45.0","1680x1050","1668x949","Botox","BotoxPart1_Text-Diagram","",NA,"END TASK",NA,"","","",329555,NA,NA,"","","",NA
"2",1617287558200,2,"01/04/2021 16:32:38","BLIND",7029694,NA,"complete",NA,NA,"computer","Desktop or Laptop","Windows 10","Firefox 45.0","1680x1050","1668x949","Botox","BotoxPart1_Text-Diagram","BotoxPart1_Text-Diagram",1,"1",1,"Text","advancementZone","continue_button",89768.6725,NA,NA,"","","BotoxText",NA
"3",1617287567140,2,"01/04/2021 16:32:47","BLIND",7029694,NA,"complete",NA,NA,"computer","Desktop or Laptop","Windows 10","Firefox 45.0","1680x1050","1668x949","Botox","BotoxPart1_Text-Diagram","BotoxPart1_Text-Diagram",2,"1",1,"JoL1","Two","response_button_text",89768.6725,NA,NA,"2","1","BotoxJoL1",NA
"4",1617287718253,2,"01/04/2021 16:35:18","BLIND",7029694,NA,"complete",NA,NA,"computer","Desktop or Laptop","Windows 10","Firefox 45.0","1680x1050","1668x949","Botox","BotoxPart1_Text-Diagram","BotoxPart1_Text-Diagram",3,"1",1,"Diagram","DiagBox3","response_text_area",89768.6725,NA,NA,"VYK","","BotoxDiagram",NA
"5",1617287718256,2,"01/04/2021 16:35:18","BLIND",7029694,NA,"complete",NA,NA,"computer","Desktop or Laptop","Windows 10","Firefox 45.0","1680x1050","1668x949","Botox","BotoxPart1_Text-Diagram","BotoxPart1_Text-Diagram",3,"1",1,"Diagram","DiagBox4","response_text_area",89768.6725,NA,NA,"fNnGfffMK","","BotoxDiagram",NA
"6",1617287718256,2,"01/04/2021 16:35:18","BLIND",7029694,NA,"complete",NA,NA,"computer","Desktop or Laptop","Windows 10","Firefox 45.0","1680x1050","1668x949","Botox","BotoxPart1_Text-Diagram","BotoxPart1_Text-Diagram",3,"1",1,"Diagram","DiagBox2","response_text_area",89768.6725,NA,NA,"O6D","","BotoxDiagram",NA
"7",1617287718256,2,"01/04/2021 16:35:18","BLIND",7029694,NA,"complete",NA,NA,"computer","Desktop or Laptop","Windows 10","Firefox 45.0","1680x1050","1668x949","Botox","BotoxPart1_Text-Diagram","BotoxPart1_Text-Diagram",3,"1",1,"Diagram","DiagBox1","response_text_area",89768.6725,NA,NA,"GcGr","","BotoxDiagram",NA
"8",1617287718256,2,"01/04/2021 16:35:18","BLIND",7029694,NA,"complete",NA,NA,"computer","Desktop or Laptop","Windows 10","Firefox 45.0","1680x1050","1668x949","Botox","BotoxPart1_Text-Diagram","BotoxPart1_Text-Diagram",3,"1",1,"Diagram","Zone1","continue_button",89768.6725,NA,NA,"","","BotoxDiagram",NA
"9",1617287718257,2,"01/04/2021 16:35:18","BLIND",7029694,NA,"complete",NA,NA,"computer","Desktop or Laptop","Windows 10","Firefox 45.0","1680x1050","1668x949","Botox","BotoxPart1_Text-Diagram","",NA,"",NA,"","","",89768.6725,NA,NA,"","De zenuwen en huid spannen slechter aan,Inspuiten van botox rond de ogen en het voorhoofd,Potentieel verlies van gezichtsuitdrukkingen,Vermindering van  overmatige samenspanningen ","",NA
"1",1617019458989,2,"29/03/2021 14:04:18","BLIND",7323432,NA,"complete",NA,NA,"computer","Desktop or Laptop","Windows 10","Firefox 45.0","1680x1050","1668x949","Botox","BotoxPart1_Text-Diagram","",NA,"BEGIN TASK",NA,"","","",NA,NA,NA,"","","",NA
"10",1617019577089,2,"29/03/2021 14:06:17","BLIND",7323432,NA,"complete",NA,NA,"computer","Desktop or Laptop","Windows 10","Firefox 45.0","1680x1050","1668x949","Botox","BotoxPart1_Text-Diagram","",NA,"END TASK",NA,"","","",118101,NA,NA,"","","",NA
"2",1617019532785,2,"29/03/2021 14:05:32","BLIND",7323432,NA,"complete",NA,NA,"computer","Desktop or Laptop","Windows 10","Firefox 45.0","1680x1050","1668x949","Botox","BotoxPart1_Text-Diagram","BotoxPart1_Text-Diagram",1,"1",1,"Text","advancementZone","continue_button",89768.6725,NA,NA,"","","BotoxText",NA
"3",1617019534359,2,"29/03/2021 14:05:34","BLIND",7323432,NA,"complete",NA,NA,"computer","Desktop or Laptop","Windows 10","Firefox 45.0","1680x1050","1668x949","Botox","BotoxPart1_Text-Diagram","BotoxPart1_Text-Diagram",2,"1",1,"JoL1","Two","response_button_text",89768.6725,NA,NA,"2","1","BotoxJoL1",NA
"4",1617019577068,2,"29/03/2021 14:06:17","BLIND",7323432,NA,"complete",NA,NA,"computer","Desktop or Laptop","Windows 10","Firefox 45.0","1680x1050","1668x949","Botox","BotoxPart1_Text-Diagram","BotoxPart1_Text-Diagram",3,"1",1,"Diagram","DiagBox3","response_text_area",89768.6725,NA,NA,"Pq7h","","BotoxDiagram",NA
"5",1617019577070,2,"29/03/2021 14:06:17","BLIND",7323432,NA,"complete",NA,NA,"computer","Desktop or Laptop","Windows 10","Firefox 45.0","1680x1050","1668x949","Botox","BotoxPart1_Text-Diagram","BotoxPart1_Text-Diagram",3,"1",1,"Diagram","DiagBox4","response_text_area",89768.6725,NA,NA,"5EuRZnL8","","BotoxDiagram",NA
"6",1617019577070,2,"29/03/2021 14:06:17","BLIND",7323432,NA,"complete",NA,NA,"computer","Desktop or Laptop","Windows 10","Firefox 45.0","1680x1050","1668x949","Botox","BotoxPart1_Text-Diagram","BotoxPart1_Text-Diagram",3,"1",1,"Diagram","DiagBox2","response_text_area",89768.6725,NA,NA,"i5N2eW","","BotoxDiagram",NA
"7",1617019577070,2,"29/03/2021 14:06:17","BLIND",7323432,NA,"complete",NA,NA,"computer","Desktop or Laptop","Windows 10","Firefox 45.0","1680x1050","1668x949","Botox","BotoxPart1_Text-Diagram","BotoxPart1_Text-Diagram",3,"1",1,"Diagram","DiagBox1","response_text_area",89768.6725,NA,NA,"cDPkx","","BotoxDiagram",NA
"8",1617019577070,2,"29/03/2021 14:06:17","BLIND",7323432,NA,"complete",NA,NA,"computer","Desktop or Laptop","Windows 10","Firefox 45.0","1680x1050","1668x949","Botox","BotoxPart1_Text-Diagram","BotoxPart1_Text-Diagram",3,"1",1,"Diagram","Zone1","continue_button",89768.6725,NA,NA,"","","BotoxDiagram",NA
"9",1617019577071,2,"29/03/2021 14:06:17","BLIND",7323432,NA,"complete",NA,NA,"computer","Desktop or Laptop","Windows 10","Firefox 45.0","1680x1050","1668x949","Botox","BotoxPart1_Text-Diagram","",NA,"",NA,"","","",89768.6725,NA,NA,"","het is een gif afkomstig van een bacterie,het blokkeert een aanspanningsignaal in de spieren,mensen zien er jonger uit,de gezichtsuitdrukkingen veranderen ook","",NA
"1",1617199765805,2,"31/03/2021 16:09:25","BLIND",7668773,NA,"complete",NA,NA,"computer","Desktop or Laptop","Windows 10","Firefox 45.0","1680x1050","1668x949","Botox","BotoxPart1_Text-Diagram","",NA,"BEGIN TASK",NA,"","","",NA,NA,NA,"","","",NA
"10",1617199954779,2,"31/03/2021 16:12:34","BLIND",7668773,NA,"complete",NA,NA,"computer","Desktop or Laptop","Windows 10","Firefox 45.0","1680x1050","1668x949","Botox","BotoxPart1_Text-Diagram","",NA,"END TASK",NA,"","","",188974,NA,NA,"","","",NA
"2",1617199855285,2,"31/03/2021 16:10:55","BLIND",7668773,NA,"complete",NA,NA,"computer","Desktop or Laptop","Windows 10","Firefox 45.0","1680x1050","1668x949","Botox","BotoxPart1_Text-Diagram","BotoxPart1_Text-Diagram",1,"1",1,"Text","advancementZone","continue_button",89768.6725,NA,NA,"","","BotoxText",NA
"3",1617199859179,2,"31/03/2021 16:10:59","BLIND",7668773,NA,"complete",NA,NA,"computer","Desktop or Laptop","Windows 10","Firefox 45.0","1680x1050","1668x949","Botox","BotoxPart1_Text-Diagram","BotoxPart1_Text-Diagram",2,"1",1,"JoL1","Three","response_button_text",89768.6725,NA,NA,"2","1","BotoxJoL1",NA
"4",1617199954766,2,"31/03/2021 16:12:34","BLIND",7668773,NA,"complete",NA,NA,"computer","Desktop or Laptop","Windows 10","Firefox 45.0","1680x1050","1668x949","Botox","BotoxPart1_Text-Diagram","BotoxPart1_Text-Diagram",3,"1",1,"Diagram","DiagBox3","response_text_area",89768.6725,NA,NA,"otK8dP7","","BotoxDiagram",NA
"5",1617199954768,2,"31/03/2021 16:12:34","BLIND",7668773,NA,"complete",NA,NA,"computer","Desktop or Laptop","Windows 10","Firefox 45.0","1680x1050","1668x949","Botox","BotoxPart1_Text-Diagram","BotoxPart1_Text-Diagram",3,"1",1,"Diagram","DiagBox4","response_text_area",89768.6725,NA,NA,"3SdeUym","","BotoxDiagram",NA
"6",1617199954768,2,"31/03/2021 16:12:34","BLIND",7668773,NA,"complete",NA,NA,"computer","Desktop or Laptop","Windows 10","Firefox 45.0","1680x1050","1668x949","Botox","BotoxPart1_Text-Diagram","BotoxPart1_Text-Diagram",3,"1",1,"Diagram","DiagBox2","response_text_area",89768.6725,NA,NA,"NwOapV","","BotoxDiagram",NA
"7",1617199954769,2,"31/03/2021 16:12:34","BLIND",7668773,NA,"complete",NA,NA,"computer","Desktop or Laptop","Windows 10","Firefox 45.0","1680x1050","1668x949","Botox","BotoxPart1_Text-Diagram","BotoxPart1_Text-Diagram",3,"1",1,"Diagram","DiagBox1","response_text_area",89768.6725,NA,NA,"bOd","","BotoxDiagram",NA
"8",1617199954769,2,"31/03/2021 16:12:34","BLIND",7668773,NA,"complete",NA,NA,"computer","Desktop or Laptop","Windows 10","Firefox 45.0","1680x1050","1668x949","Botox","BotoxPart1_Text-Diagram","BotoxPart1_Text-Diagram",3,"1",1,"Diagram","Zone1","continue_button",89768.6725,NA,NA,"","","BotoxDiagram",NA
"9",1617199954770,2,"31/03/2021 16:12:34","BLIND",7668773,NA,"complete",NA,NA,"computer","Desktop or Laptop","Windows 10","Firefox 45.0","1680x1050","1668x949","Botox","BotoxPart1_Text-Diagram","",NA,"",NA,"","","",89768.6725,NA,NA,"","het komt van botulinetoxine, geproduceerd door een bacterie,het is sinds 1989 toegestaan om te gebruiken, maar wel met strenge regels,het wordt gebruikt voor mensen die spiersamentrekkingen hebben, bijvoorbeeld in de oogleden,Het wordt gebruikt om rimpels mee weg te halen, al verdwijnt hierdoor echter soms iemands gezichtsuitdrukking","",NA
"1",1617092112669,2,"30/03/2021 10:15:12","BLIND",8864507,NA,"complete",NA,NA,"computer","Desktop or Laptop","Windows 10","Firefox 45.0","1680x1050","1668x949","Botox","BotoxPart1_Text-Diagram","",NA,"BEGIN TASK",NA,"","","",NA,NA,NA,"","","",NA
"10",1617092344729,2,"30/03/2021 10:19:04","BLIND",8864507,NA,"complete",NA,NA,"computer","Desktop or Laptop","Windows 10","Firefox 45.0","1680x1050","1668x949","Botox","BotoxPart1_Text-Diagram","",NA,"END TASK",NA,"","","",232060,NA,NA,"","","",NA
"2",1617092183802,2,"30/03/2021 10:16:23","BLIND",8864507,NA,"complete",NA,NA,"computer","Desktop or Laptop","Windows 10","Firefox 45.0","1680x1050","1668x949","Botox","BotoxPart1_Text-Diagram","BotoxPart1_Text-Diagram",1,"1",1,"Text","advancementZone","continue_button",89768.6725,NA,NA,"","","BotoxText",NA
"3",1617092187440,2,"30/03/2021 10:16:27","BLIND",8864507,NA,"complete",NA,NA,"computer","Desktop or Laptop","Windows 10","Firefox 45.0","1680x1050","1668x949","Botox","BotoxPart1_Text-Diagram","BotoxPart1_Text-Diagram",2,"1",1,"JoL1","Three","response_button_text",89768.6725,NA,NA,"2","1","BotoxJoL1",NA
"4",1617092344718,2,"30/03/2021 10:19:04","BLIND",8864507,NA,"complete",NA,NA,"computer","Desktop or Laptop","Windows 10","Firefox 45.0","1680x1050","1668x949","Botox","BotoxPart1_Text-Diagram","BotoxPart1_Text-Diagram",3,"1",1,"Diagram","DiagBox3","response_text_area",89768.6725,NA,NA,"hLNBaheMW","","BotoxDiagram",NA
"5",1617092344721,2,"30/03/2021 10:19:04","BLIND",8864507,NA,"complete",NA,NA,"computer","Desktop or Laptop","Windows 10","Firefox 45.0","1680x1050","1668x949","Botox","BotoxPart1_Text-Diagram","BotoxPart1_Text-Diagram",3,"1",1,"Diagram","DiagBox4","response_text_area",89768.6725,NA,NA,"b12EZZ","","BotoxDiagram",NA
"6",1617092344721,2,"30/03/2021 10:19:04","BLIND",8864507,NA,"complete",NA,NA,"computer","Desktop or Laptop","Windows 10","Firefox 45.0","1680x1050","1668x949","Botox","BotoxPart1_Text-Diagram","BotoxPart1_Text-Diagram",3,"1",1,"Diagram","DiagBox2","response_text_area",89768.6725,NA,NA,"Gob2FhAv","","BotoxDiagram",NA
"7",1617092344721,2,"30/03/2021 10:19:04","BLIND",8864507,NA,"complete",NA,NA,"computer","Desktop or Laptop","Windows 10","Firefox 45.0","1680x1050","1668x949","Botox","BotoxPart1_Text-Diagram","BotoxPart1_Text-Diagram",3,"1",1,"Diagram","DiagBox1","response_text_area",89768.6725,NA,NA,"oxbAV","","BotoxDiagram",NA
"8",1617092344721,2,"30/03/2021 10:19:04","BLIND",8864507,NA,"complete",NA,NA,"computer","Desktop or Laptop","Windows 10","Firefox 45.0","1680x1050","1668x949","Botox","BotoxPart1_Text-Diagram","BotoxPart1_Text-Diagram",3,"1",1,"Diagram","Zone1","continue_button",89768.6725,NA,NA,"","","BotoxDiagram",NA
"9",1617092344722,2,"30/03/2021 10:19:04","BLIND",8864507,NA,"complete",NA,NA,"computer","Desktop or Laptop","Windows 10","Firefox 45.0","1680x1050","1668x949","Botox","BotoxPart1_Text-Diagram","",NA,"",NA,"","","",89768.6725,NA,NA,"","Hierdoor worden de nabij gelegen spieren verlamd.,Men kan hierdoor de spieren minder goed aanspannen,Het wordt gebruikt om rimpels te vermijden.,Echter kan het ook gevolgen hebben voor de gezichtsuitdrukking","",NA
"1",1617292937256,2,"01/04/2021 18:02:17","BLIND",NA,NA,"complete",NA,NA,"computer","Desktop or Laptop","Windows 10","Firefox 45.0","1680x1050","1668x949","Botox","BotoxPart1_Text-Diagram","",NA,"BEGIN TASK",NA,"","","",NA,NA,NA,"","","",NA
"10",1617292948168,2,"01/04/2021 18:02:28","BLIND",NA,NA,"complete",NA,NA,"computer","Desktop or Laptop","Windows 10","Firefox 45.0","1680x1050","1668x949","Botox","BotoxPart1_Text-Diagram","",NA,"END TASK",NA,"","","",10912,NA,NA,"","","",NA
"2",1617292939722,2,"01/04/2021 18:02:19","BLIND",NA,NA,"complete",NA,NA,"computer","Desktop or Laptop","Windows 10","Firefox 45.0","1680x1050","1668x949","Botox","BotoxPart1_Text-Diagram","BotoxPart1_Text-Diagram",1,"1",1,"Text","advancementZone","continue_button",89768.6725,NA,NA,"","","BotoxText",NA
"3",1617292940295,2,"01/04/2021 18:02:20","BLIND",NA,NA,"complete",NA,NA,"computer","Desktop or Laptop","Windows 10","Firefox 45.0","1680x1050","1668x949","Botox","BotoxPart1_Text-Diagram","BotoxPart1_Text-Diagram",2,"1",1,"JoL1","Two","response_button_text",89768.6725,NA,NA,"2","1","BotoxJoL1",NA
"4",1617292948149,2,"01/04/2021 18:02:28","BLIND",NA,NA,"complete",NA,NA,"computer","Desktop or Laptop","Windows 10","Firefox 45.0","1680x1050","1668x949","Botox","BotoxPart1_Text-Diagram","BotoxPart1_Text-Diagram",3,"1",1,"Diagram","DiagBox3","response_text_area",89768.6725,NA,NA,"e217","","BotoxDiagram",NA
"5",1617292948151,2,"01/04/2021 18:02:28","BLIND",NA,NA,"complete",NA,NA,"computer","Desktop or Laptop","Windows 10","Firefox 45.0","1680x1050","1668x949","Botox","BotoxPart1_Text-Diagram","BotoxPart1_Text-Diagram",3,"1",1,"Diagram","DiagBox4","response_text_area",89768.6725,NA,NA,"cw8kBmj","","BotoxDiagram",NA
"6",1617292948151,2,"01/04/2021 18:02:28","BLIND",NA,NA,"complete",NA,NA,"computer","Desktop or Laptop","Windows 10","Firefox 45.0","1680x1050","1668x949","Botox","BotoxPart1_Text-Diagram","BotoxPart1_Text-Diagram",3,"1",1,"Diagram","DiagBox2","response_text_area",89768.6725,NA,NA,"GHJvJ8","","BotoxDiagram",NA
"7",1617292948152,2,"01/04/2021 18:02:28","BLIND",NA,NA,"complete",NA,NA,"computer","Desktop or Laptop","Windows 10","Firefox 45.0","1680x1050","1668x949","Botox","BotoxPart1_Text-Diagram","BotoxPart1_Text-Diagram",3,"1",1,"Diagram","DiagBox1","response_text_area",89768.6725,NA,NA,"FZlJi","","BotoxDiagram",NA
"8",1617292948152,2,"01/04/2021 18:02:28","BLIND",NA,NA,"complete",NA,NA,"computer","Desktop or Laptop","Windows 10","Firefox 45.0","1680x1050","1668x949","Botox","BotoxPart1_Text-Diagram","BotoxPart1_Text-Diagram",3,"1",1,"Diagram","Zone1","continue_button",89768.6725,NA,NA,"","","BotoxDiagram",NA
"9",1617292948155,2,"01/04/2021 18:02:28","BLIND",NA,NA,"complete",NA,NA,"computer","Desktop or Laptop","Windows 10","Firefox 45.0","1680x1050","1668x949","Botox","BotoxPart1_Text-Diagram","",NA,"",NA,"","","",89768.6725,NA,NA,"","Lorem ipsum dolor sit amet, consectetur adipiscing elit. Proin non lacinia ante, vel tincidunt tellus. ,Lorem ipsum dolor sit amet, consectetur adipiscing elit. Proin non lacinia ante, vel tincidunt tellus. ,Lorem ipsum dolor sit amet, consectetur adipiscing elit. Proin non lacinia ante, vel tincidunt tellus. ,Lorem ipsum dolor sit amet, consectetur adipiscing elit. Proin non lacinia ante, vel tincidunt tellus. ","",NA
"END OF FILE",NA,NA,"","",NA,NA,"",NA,NA,"","","","","","","","","",NA,"",NA,"","","",89768.6725,NA,NA,"","","",NA
"END OF FILE",NA,NA,"","",NA,NA,"",NA,NA,"","","","","","","","","",NA,"",NA,"","","",NA,NA,NA,"","","",NA
