"Event_Index","Local_Timestamp","Local_Timezone","Local_Date","Participant_Public_ID","Participant_Private_ID","Participant_Starting_Group","Participant_Status","Participant_Completion_Code","Participant_External_Session_ID","Participant_Device_Type","Participant_Device","Participant_OS","Participant_Browser","Participant_Monitor_Size","Participant_Viewport_Size","randomiser_bod5","Spreadsheet","Spreadsheet_Name","Spreadsheet_Row","Trial_Number","Screen_Number","Screen_Name","Zone_Name","Zone_Type","Reaction_Time","Reaction_Onset","Response_Type","Response","Attempt","display","Diagram_Box_Require_Response"
"1",1615464652740,1,"11/03/2021 13:10:52","BLIND",2693445,NA,"complete",NA,NA,"computer","Desktop or Laptop","Windows 10","Firefox 45.0","1680x1050","1668x949","Metro","MetroPart1_Text-Diagram","",NA,"BEGIN TASK",NA,"","","",NA,NA,NA,"","","",NA
"10",1615464788474,1,"11/03/2021 13:13:08","BLIND",2693445,NA,"complete",NA,NA,"computer","Desktop or Laptop","Windows 10","Firefox 45.0","1680x1050","1668x949","Metro","MetroPart1_Text-Diagram","",NA,"END TASK",NA,"","","",135734,NA,NA,"","","",NA
"2",1615464723459,1,"11/03/2021 13:12:03","BLIND",2693445,NA,"complete",NA,NA,"computer","Desktop or Laptop","Windows 10","Firefox 45.0","1680x1050","1668x949","Metro","MetroPart1_Text-Diagram","MetroPart1_Text-Diagram",1,"1",1,"Text","advancementZone","continue_button",NA,NA,NA,"","","MetroText",NA
"3",1615464727282,1,"11/03/2021 13:12:07","BLIND",2693445,NA,"complete",NA,NA,"computer","Desktop or Laptop","Windows 10","Firefox 45.0","1680x1050","1668x949","Metro","MetroPart1_Text-Diagram","MetroPart1_Text-Diagram",2,"1",1,"JoL1","One","response_button_text",NA,NA,NA,"3","1","MetroJoL1",NA
"4",1615464788463,1,"11/03/2021 13:13:08","BLIND",2693445,NA,"complete",NA,NA,"computer","Desktop or Laptop","Windows 10","Firefox 45.0","1680x1050","1668x949","Metro","MetroPart1_Text-Diagram","MetroPart1_Text-Diagram",3,"1",1,"Diagram","DiagBox1","response_text_area",NA,NA,NA,"?","","MetroDiagram",NA
"5",1615464788465,1,"11/03/2021 13:13:08","BLIND",2693445,NA,"complete",NA,NA,"computer","Desktop or Laptop","Windows 10","Firefox 45.0","1680x1050","1668x949","Metro","MetroPart1_Text-Diagram","MetroPart1_Text-Diagram",3,"1",1,"Diagram","DiagBox3","response_text_area",NA,NA,NA,"?","","MetroDiagram",NA
"6",1615464788465,1,"11/03/2021 13:13:08","BLIND",2693445,NA,"complete",NA,NA,"computer","Desktop or Laptop","Windows 10","Firefox 45.0","1680x1050","1668x949","Metro","MetroPart1_Text-Diagram","MetroPart1_Text-Diagram",3,"1",1,"Diagram","DiagBox4","response_text_area",NA,NA,NA,"?","","MetroDiagram",NA
"7",1615464788465,1,"11/03/2021 13:13:08","BLIND",2693445,NA,"complete",NA,NA,"computer","Desktop or Laptop","Windows 10","Firefox 45.0","1680x1050","1668x949","Metro","MetroPart1_Text-Diagram","MetroPart1_Text-Diagram",3,"1",1,"Diagram","DiagBox2","response_text_area",NA,NA,NA,"uFh","","MetroDiagram",NA
"8",1615464788466,1,"11/03/2021 13:13:08","BLIND",2693445,NA,"complete",NA,NA,"computer","Desktop or Laptop","Windows 10","Firefox 45.0","1680x1050","1668x949","Metro","MetroPart1_Text-Diagram","MetroPart1_Text-Diagram",3,"1",1,"Diagram","Zone1","continue_button",NA,NA,NA,"","","MetroDiagram",NA
"9",1615464788466,1,"11/03/2021 13:13:08","BLIND",2693445,NA,"complete",NA,NA,"computer","Desktop or Laptop","Windows 10","Firefox 45.0","1680x1050","1668x949","Metro","MetroPart1_Text-Diagram","",NA,"",NA,"","","",NA,NA,NA,"","?,plantkon in de zee wordt verviervoudigd ,?,?","",NA
"1",1615547423149,1,"12/03/2021 12:10:23","BLIND",9344726,NA,"complete",NA,NA,"computer","Desktop or Laptop","Windows 10","Firefox 45.0","1680x1050","1668x949","Metro","MetroPart1_Text-Diagram","",NA,"BEGIN TASK",NA,"","","",NA,NA,NA,"","","",NA
"10",1615547652154,1,"12/03/2021 12:14:12","BLIND",9344726,NA,"complete",NA,NA,"computer","Desktop or Laptop","Windows 10","Firefox 45.0","1680x1050","1668x949","Metro","MetroPart1_Text-Diagram","",NA,"END TASK",NA,"","","",229005,NA,NA,"","","",NA
"2",1615547486591,1,"12/03/2021 12:11:26","BLIND",9344726,NA,"complete",NA,NA,"computer","Desktop or Laptop","Windows 10","Firefox 45.0","1680x1050","1668x949","Metro","MetroPart1_Text-Diagram","MetroPart1_Text-Diagram",1,"1",1,"Text","advancementZone","continue_button",NA,NA,NA,"","","MetroText",NA
"3",1615547489670,1,"12/03/2021 12:11:29","BLIND",9344726,NA,"complete",NA,NA,"computer","Desktop or Laptop","Windows 10","Firefox 45.0","1680x1050","1668x949","Metro","MetroPart1_Text-Diagram","MetroPart1_Text-Diagram",2,"1",1,"JoL1","Three","response_button_text",NA,NA,NA,"3","1","MetroJoL1",NA
"4",1615547652141,1,"12/03/2021 12:14:12","BLIND",9344726,NA,"complete",NA,NA,"computer","Desktop or Laptop","Windows 10","Firefox 45.0","1680x1050","1668x949","Metro","MetroPart1_Text-Diagram","MetroPart1_Text-Diagram",3,"1",1,"Diagram","DiagBox1","response_text_area",NA,NA,NA,"JrwAeObd","","MetroDiagram",NA
"5",1615547652143,1,"12/03/2021 12:14:12","BLIND",9344726,NA,"complete",NA,NA,"computer","Desktop or Laptop","Windows 10","Firefox 45.0","1680x1050","1668x949","Metro","MetroPart1_Text-Diagram","MetroPart1_Text-Diagram",3,"1",1,"Diagram","DiagBox3","response_text_area",NA,NA,NA,"c7HJ3Du6Y","","MetroDiagram",NA
"6",1615547652144,1,"12/03/2021 12:14:12","BLIND",9344726,NA,"complete",NA,NA,"computer","Desktop or Laptop","Windows 10","Firefox 45.0","1680x1050","1668x949","Metro","MetroPart1_Text-Diagram","MetroPart1_Text-Diagram",3,"1",1,"Diagram","DiagBox4","response_text_area",NA,NA,NA,"w1L8WXdT4S","","MetroDiagram",NA
"7",1615547652144,1,"12/03/2021 12:14:12","BLIND",9344726,NA,"complete",NA,NA,"computer","Desktop or Laptop","Windows 10","Firefox 45.0","1680x1050","1668x949","Metro","MetroPart1_Text-Diagram","MetroPart1_Text-Diagram",3,"1",1,"Diagram","DiagBox2","response_text_area",NA,NA,NA,"fFPU","","MetroDiagram",NA
"8",1615547652144,1,"12/03/2021 12:14:12","BLIND",9344726,NA,"complete",NA,NA,"computer","Desktop or Laptop","Windows 10","Firefox 45.0","1680x1050","1668x949","Metro","MetroPart1_Text-Diagram","MetroPart1_Text-Diagram",3,"1",1,"Diagram","Zone1","continue_button",NA,NA,NA,"","","MetroDiagram",NA
"9",1615547652145,1,"12/03/2021 12:14:12","BLIND",9344726,NA,"complete",NA,NA,"computer","Desktop or Laptop","Windows 10","Firefox 45.0","1680x1050","1668x949","Metro","MetroPart1_Text-Diagram","",NA,"",NA,"","","",NA,NA,NA,"","De rode wagons hoeven niet meer als afval verwerkt te worden.,Voor de kust wordt een stuk verhoogd.,Hierdoor ontstaat een kunstmatig rif.,De flora en fauna van de oceaan voor de amerikaanse kust neemt toe.","",NA
"1",1615386199078,1,"10/03/2021 15:23:19","BLIND",9588918,NA,"complete",NA,NA,"computer","Desktop or Laptop","Windows 10","Firefox 45.0","1680x1050","1668x949","Metro","MetroPart1_Text-Diagram","",NA,"BEGIN TASK",NA,"","","",NA,NA,NA,"","","",NA
"10",1615386301076,1,"10/03/2021 15:25:01","BLIND",9588918,NA,"complete",NA,NA,"computer","Desktop or Laptop","Windows 10","Firefox 45.0","1680x1050","1668x949","Metro","MetroPart1_Text-Diagram","",NA,"END TASK",NA,"","","",101998,NA,NA,"","","",NA
"2",1615386246965,1,"10/03/2021 15:24:06","BLIND",9588918,NA,"complete",NA,NA,"computer","Desktop or Laptop","Windows 10","Firefox 45.0","1680x1050","1668x949","Metro","MetroPart1_Text-Diagram","MetroPart1_Text-Diagram",1,"1",1,"Text","advancementZone","continue_button",NA,NA,NA,"","","MetroText",NA
"3",1615386248196,1,"10/03/2021 15:24:08","BLIND",9588918,NA,"complete",NA,NA,"computer","Desktop or Laptop","Windows 10","Firefox 45.0","1680x1050","1668x949","Metro","MetroPart1_Text-Diagram","MetroPart1_Text-Diagram",2,"1",1,"JoL1","One","response_button_text",NA,NA,NA,"3","1","MetroJoL1",NA
"4",1615386301066,1,"10/03/2021 15:25:01","BLIND",9588918,NA,"complete",NA,NA,"computer","Desktop or Laptop","Windows 10","Firefox 45.0","1680x1050","1668x949","Metro","MetroPart1_Text-Diagram","MetroPart1_Text-Diagram",3,"1",1,"Diagram","DiagBox1","response_text_area",NA,NA,NA,"HEKOf68t4Y","","MetroDiagram",NA
"5",1615386301068,1,"10/03/2021 15:25:01","BLIND",9588918,NA,"complete",NA,NA,"computer","Desktop or Laptop","Windows 10","Firefox 45.0","1680x1050","1668x949","Metro","MetroPart1_Text-Diagram","MetroPart1_Text-Diagram",3,"1",1,"Diagram","DiagBox3","response_text_area",NA,NA,NA,"KJUEhvQI","","MetroDiagram",NA
"6",1615386301068,1,"10/03/2021 15:25:01","BLIND",9588918,NA,"complete",NA,NA,"computer","Desktop or Laptop","Windows 10","Firefox 45.0","1680x1050","1668x949","Metro","MetroPart1_Text-Diagram","MetroPart1_Text-Diagram",3,"1",1,"Diagram","DiagBox4","response_text_area",NA,NA,NA,"?","","MetroDiagram",NA
"7",1615386301068,1,"10/03/2021 15:25:01","BLIND",9588918,NA,"complete",NA,NA,"computer","Desktop or Laptop","Windows 10","Firefox 45.0","1680x1050","1668x949","Metro","MetroPart1_Text-Diagram","MetroPart1_Text-Diagram",3,"1",1,"Diagram","DiagBox2","response_text_area",NA,NA,NA,"7eERLL","","MetroDiagram",NA
"8",1615386301069,1,"10/03/2021 15:25:01","BLIND",9588918,NA,"complete",NA,NA,"computer","Desktop or Laptop","Windows 10","Firefox 45.0","1680x1050","1668x949","Metro","MetroPart1_Text-Diagram","MetroPart1_Text-Diagram",3,"1",1,"Diagram","Zone1","continue_button",NA,NA,NA,"","","MetroDiagram",NA
"9",1615386301069,1,"10/03/2021 15:25:01","BLIND",9588918,NA,"complete",NA,NA,"computer","Desktop or Laptop","Windows 10","Firefox 45.0","1680x1050","1668x949","Metro","MetroPart1_Text-Diagram","",NA,"",NA,"","","",NA,NA,NA,"","goede manier om afval weg te krijgen,het maken van een kunstmatig rif,meer komst van zeedieren zoals plankton en zeebaars,?","",NA
"END OF FILE",NA,NA,"","",NA,NA,"",NA,NA,"","","","","","","","","",NA,"",NA,"","","",NA,NA,NA,"","","",NA
"END OF FILE",NA,NA,"","",NA,NA,"",NA,NA,"","","","","","","","","",NA,"",NA,"","","",NA,NA,NA,"","","",NA
