"Event_Index","Local_Timestamp","Local_Timezone","Local_Date","Participant_Public_ID","Participant_Private_ID","Participant_Starting_Group","Participant_Status","Participant_Completion_Code","Participant_External_Session_ID","Participant_Device_Type","Participant_Device","Participant_OS","Participant_Browser","Participant_Monitor_Size","Participant_Viewport_Size","randomiser_81rl","Spreadsheet","Spreadsheet_Name","Spreadsheet_Row","Trial_Number","Screen_Number","Screen_Name","Zone_Name","Zone_Type","Reaction_Time","Reaction_Onset","Response_Type","Response","Attempt","display"
"1",1604078761035,1,"30/10/2020 18:26:01","BLIND",1984662,NA,"complete",NA,"5f9c4bc0ef75c70c0ab56b92","computer","Desktop or Laptop","Windows 10","Chrome 86.0.4240.111","1280x720","1280x610","FeedbackOnly","AliceSportIntoFeedbackOnly","",NA,"BEGIN TASK",NA,"","","",NA,NA,NA,"",NA,""
"10",1604079014782,1,"30/10/2020 18:30:14","BLIND",1984662,NA,"complete",NA,"5f9c4bc0ef75c70c0ab56b92","computer","Desktop or Laptop","Windows 10","Chrome 86.0.4240.111","1280x720","1280x610","FeedbackOnly","AliceSportIntoFeedbackOnly","AliceSportIntoFeedbackOnly",3,"1",6,"Test","buttonA","response_text_area",28040.3303030323,NA,NA,"u3TJuIVD",NA,"SportenFeedbackOnly"
"11",1604079014784,1,"30/10/2020 18:30:14","BLIND",1984662,NA,"complete",NA,"5f9c4bc0ef75c70c0ab56b92","computer","Desktop or Laptop","Windows 10","Chrome 86.0.4240.111","1280x720","1280x610","FeedbackOnly","AliceSportIntoFeedbackOnly","AliceSportIntoFeedbackOnly",3,"1",6,"Test","buttonB","continue_button",28040.3303030323,NA,NA,"",NA,"SportenFeedbackOnly"
"12",1604079017158,1,"30/10/2020 18:30:17","BLIND",1984662,NA,"complete",NA,"5f9c4bc0ef75c70c0ab56b92","computer","Desktop or Laptop","Windows 10","Chrome 86.0.4240.111","1280x720","1280x610","FeedbackOnly","AliceSportIntoFeedbackOnly","AliceSportIntoFeedbackOnly",4,"1",1,"Screen 1","advancementZone","continue_button",28040.3303030323,NA,NA,"",NA,"ReadyForExperiment"
"13",1604079017162,1,"30/10/2020 18:30:17","BLIND",1984662,NA,"complete",NA,"5f9c4bc0ef75c70c0ab56b92","computer","Desktop or Laptop","Windows 10","Chrome 86.0.4240.111","1280x720","1280x610","FeedbackOnly","AliceSportIntoFeedbackOnly","",NA,"END TASK",NA,"","","",256128,NA,NA,"",NA,""
"2",1604078765340,1,"30/10/2020 18:26:05","BLIND",1984662,NA,"complete",NA,"5f9c4bc0ef75c70c0ab56b92","computer","Desktop or Laptop","Windows 10","Chrome 86.0.4240.111","1280x720","1280x610","FeedbackOnly","AliceSportIntoFeedbackOnly","AliceSportIntoFeedbackOnly",1,"1",1,"Screen 1","advancementZone","continue_button",28040.3303030323,NA,NA,"",NA,"IntroAlice"
"3",1604078874346,1,"30/10/2020 18:27:54","BLIND",1984662,NA,"complete",NA,"5f9c4bc0ef75c70c0ab56b92","computer","Desktop or Laptop","Windows 10","Chrome 86.0.4240.111","1280x720","1280x610","FeedbackOnly","AliceSportIntoFeedbackOnly","AliceSportIntoFeedbackOnly",2,"1",1,"Screen 1","content","content_video",28040.3303030323,NA,NA,"",NA,"AliceFeedbackOnlyIntroVid"
"4",1604078875942,1,"30/10/2020 18:27:55","BLIND",1984662,NA,"complete",NA,"5f9c4bc0ef75c70c0ab56b92","computer","Desktop or Laptop","Windows 10","Chrome 86.0.4240.111","1280x720","1280x610","FeedbackOnly","AliceSportIntoFeedbackOnly","AliceSportIntoFeedbackOnly",2,"1",2,"Klaar4Sporten","advancementZone","continue_button",28040.3303030323,NA,NA,"",NA,"AliceFeedbackOnlyIntroVid"
"5",1604078905472,1,"30/10/2020 18:28:25","BLIND",1984662,NA,"complete",NA,"5f9c4bc0ef75c70c0ab56b92","computer","Desktop or Laptop","Windows 10","Chrome 86.0.4240.111","1280x720","1280x610","FeedbackOnly","AliceSportIntoFeedbackOnly","AliceSportIntoFeedbackOnly",3,"1",1,"Text","advancementZone","continue_button",28040.3303030323,NA,NA,"",NA,"SportenFeedbackOnly"
"6",1604078913992,1,"30/10/2020 18:28:33","BLIND",1984662,NA,"complete",NA,"5f9c4bc0ef75c70c0ab56b92","computer","Desktop or Laptop","Windows 10","Chrome 86.0.4240.111","1280x720","1280x610","FeedbackOnly","AliceSportIntoFeedbackOnly","AliceSportIntoFeedbackOnly",3,"1",2,"JoL1","Four","response_button_text",28040.3303030323,NA,NA,"2",1,"SportenFeedbackOnly"
"7",1604078928059,1,"30/10/2020 18:28:48","BLIND",1984662,NA,"complete",NA,"5f9c4bc0ef75c70c0ab56b92","computer","Desktop or Laptop","Windows 10","Chrome 86.0.4240.111","1280x720","1280x610","FeedbackOnly","AliceSportIntoFeedbackOnly","AliceSportIntoFeedbackOnly",3,"1",3,"Feedback","Zone1","continue_button",28040.3303030323,NA,NA,"",NA,"SportenFeedbackOnly"
"8",1604078931022,1,"30/10/2020 18:28:51","BLIND",1984662,NA,"complete",NA,"5f9c4bc0ef75c70c0ab56b92","computer","Desktop or Laptop","Windows 10","Chrome 86.0.4240.111","1280x720","1280x610","FeedbackOnly","AliceSportIntoFeedbackOnly","AliceSportIntoFeedbackOnly",3,"1",4,"JoL2","Four","response_button_text",28040.3303030323,NA,NA,"2",1,"SportenFeedbackOnly"
"9",1604078934209,1,"30/10/2020 18:28:54","BLIND",1984662,NA,"complete",NA,"5f9c4bc0ef75c70c0ab56b92","computer","Desktop or Laptop","Windows 10","Chrome 86.0.4240.111","1280x720","1280x610","FeedbackOnly","AliceSportIntoFeedbackOnly","AliceSportIntoFeedbackOnly",3,"1",5,"InstructieToets","advancementZone","continue_button",28040.3303030323,NA,NA,"",NA,"SportenFeedbackOnly"
"1",1604072232178,1,"30/10/2020 16:37:12","BLIND",2565331,NA,"complete",NA,"5f9c330be8f0ea085bcf8b71","computer","Desktop or Laptop","Windows 10","Chrome 86.0.4240.111","1920x1080","1920x969","FeedbackOnly","AliceSportIntoFeedbackOnly","",NA,"BEGIN TASK",NA,"","","",NA,NA,NA,"",NA,""
"10",1604072439199,1,"30/10/2020 16:40:39","BLIND",2565331,NA,"complete",NA,"5f9c330be8f0ea085bcf8b71","computer","Desktop or Laptop","Windows 10","Chrome 86.0.4240.111","1920x1080","1920x969","FeedbackOnly","AliceSportIntoFeedbackOnly","AliceSportIntoFeedbackOnly",3,"1",6,"Test","buttonA","response_text_area",28040.3303030323,NA,NA,"dM7RNzc",NA,"SportenFeedbackOnly"
"11",1604072439204,1,"30/10/2020 16:40:39","BLIND",2565331,NA,"complete",NA,"5f9c330be8f0ea085bcf8b71","computer","Desktop or Laptop","Windows 10","Chrome 86.0.4240.111","1920x1080","1920x969","FeedbackOnly","AliceSportIntoFeedbackOnly","AliceSportIntoFeedbackOnly",3,"1",6,"Test","buttonB","continue_button",28040.3303030323,NA,NA,"",NA,"SportenFeedbackOnly"
"12",1604072441273,1,"30/10/2020 16:40:41","BLIND",2565331,NA,"complete",NA,"5f9c330be8f0ea085bcf8b71","computer","Desktop or Laptop","Windows 10","Chrome 86.0.4240.111","1920x1080","1920x969","FeedbackOnly","AliceSportIntoFeedbackOnly","AliceSportIntoFeedbackOnly",4,"1",1,"Screen 1","advancementZone","continue_button",28040.3303030323,NA,NA,"",NA,"ReadyForExperiment"
"13",1604072441278,1,"30/10/2020 16:40:41","BLIND",2565331,NA,"complete",NA,"5f9c330be8f0ea085bcf8b71","computer","Desktop or Laptop","Windows 10","Chrome 86.0.4240.111","1920x1080","1920x969","FeedbackOnly","AliceSportIntoFeedbackOnly","",NA,"END TASK",NA,"","","",209101,NA,NA,"",NA,""
"2",1604072242870,1,"30/10/2020 16:37:22","BLIND",2565331,NA,"complete",NA,"5f9c330be8f0ea085bcf8b71","computer","Desktop or Laptop","Windows 10","Chrome 86.0.4240.111","1920x1080","1920x969","FeedbackOnly","AliceSportIntoFeedbackOnly","AliceSportIntoFeedbackOnly",1,"1",1,"Screen 1","advancementZone","continue_button",28040.3303030323,NA,NA,"",NA,"IntroAlice"
"3",1604072349195,1,"30/10/2020 16:39:09","BLIND",2565331,NA,"complete",NA,"5f9c330be8f0ea085bcf8b71","computer","Desktop or Laptop","Windows 10","Chrome 86.0.4240.111","1920x1080","1920x969","FeedbackOnly","AliceSportIntoFeedbackOnly","AliceSportIntoFeedbackOnly",2,"1",1,"Screen 1","content","content_video",28040.3303030323,NA,NA,"",NA,"AliceFeedbackOnlyIntroVid"
"4",1604072351199,1,"30/10/2020 16:39:11","BLIND",2565331,NA,"complete",NA,"5f9c330be8f0ea085bcf8b71","computer","Desktop or Laptop","Windows 10","Chrome 86.0.4240.111","1920x1080","1920x969","FeedbackOnly","AliceSportIntoFeedbackOnly","AliceSportIntoFeedbackOnly",2,"1",2,"Klaar4Sporten","advancementZone","continue_button",28040.3303030323,NA,NA,"",NA,"AliceFeedbackOnlyIntroVid"
"5",1604072373998,1,"30/10/2020 16:39:33","BLIND",2565331,NA,"complete",NA,"5f9c330be8f0ea085bcf8b71","computer","Desktop or Laptop","Windows 10","Chrome 86.0.4240.111","1920x1080","1920x969","FeedbackOnly","AliceSportIntoFeedbackOnly","AliceSportIntoFeedbackOnly",3,"1",1,"Text","advancementZone","continue_button",28040.3303030323,NA,NA,"",NA,"SportenFeedbackOnly"
"6",1604072375429,1,"30/10/2020 16:39:35","BLIND",2565331,NA,"complete",NA,"5f9c330be8f0ea085bcf8b71","computer","Desktop or Laptop","Windows 10","Chrome 86.0.4240.111","1920x1080","1920x969","FeedbackOnly","AliceSportIntoFeedbackOnly","AliceSportIntoFeedbackOnly",3,"1",2,"JoL1","Two","response_button_text",28040.3303030323,NA,NA,"2",1,"SportenFeedbackOnly"
"7",1604072383550,1,"30/10/2020 16:39:43","BLIND",2565331,NA,"complete",NA,"5f9c330be8f0ea085bcf8b71","computer","Desktop or Laptop","Windows 10","Chrome 86.0.4240.111","1920x1080","1920x969","FeedbackOnly","AliceSportIntoFeedbackOnly","AliceSportIntoFeedbackOnly",3,"1",3,"Feedback","Zone1","continue_button",28040.3303030323,NA,NA,"",NA,"SportenFeedbackOnly"
"8",1604072384193,1,"30/10/2020 16:39:44","BLIND",2565331,NA,"complete",NA,"5f9c330be8f0ea085bcf8b71","computer","Desktop or Laptop","Windows 10","Chrome 86.0.4240.111","1920x1080","1920x969","FeedbackOnly","AliceSportIntoFeedbackOnly","AliceSportIntoFeedbackOnly",3,"1",4,"JoL2","Three","response_button_text",28040.3303030323,NA,NA,"2",1,"SportenFeedbackOnly"
"9",1604072386486,1,"30/10/2020 16:39:46","BLIND",2565331,NA,"complete",NA,"5f9c330be8f0ea085bcf8b71","computer","Desktop or Laptop","Windows 10","Chrome 86.0.4240.111","1920x1080","1920x969","FeedbackOnly","AliceSportIntoFeedbackOnly","AliceSportIntoFeedbackOnly",3,"1",5,"InstructieToets","advancementZone","continue_button",28040.3303030323,NA,NA,"",NA,"SportenFeedbackOnly"
"1",1604071196224,1,"30/10/2020 16:19:56","BLIND",3112307,NA,"complete",NA,"5f9c2eee84865f085ddc80ab","computer","Desktop or Laptop","Windows 10","Chrome 86.0.4240.111","1920x1080","1920x937","FeedbackOnly","AliceSportIntoFeedbackOnly","",NA,"BEGIN TASK",NA,"","","",NA,NA,NA,"",NA,""
"10",1604071485407,1,"30/10/2020 16:24:45","BLIND",3112307,NA,"complete",NA,"5f9c2eee84865f085ddc80ab","computer","Desktop or Laptop","Windows 10","Chrome 86.0.4240.111","1920x1080","1920x937","FeedbackOnly","AliceSportIntoFeedbackOnly","AliceSportIntoFeedbackOnly",3,"1",6,"Test","buttonA","response_text_area",28040.3303030323,NA,NA,"jqRJBMa",NA,"SportenFeedbackOnly"
"11",1604071485408,1,"30/10/2020 16:24:45","BLIND",3112307,NA,"complete",NA,"5f9c2eee84865f085ddc80ab","computer","Desktop or Laptop","Windows 10","Chrome 86.0.4240.111","1920x1080","1920x937","FeedbackOnly","AliceSportIntoFeedbackOnly","AliceSportIntoFeedbackOnly",3,"1",6,"Test","buttonB","continue_button",28040.3303030323,NA,NA,"",NA,"SportenFeedbackOnly"
"12",1604071488245,1,"30/10/2020 16:24:48","BLIND",3112307,NA,"complete",NA,"5f9c2eee84865f085ddc80ab","computer","Desktop or Laptop","Windows 10","Chrome 86.0.4240.111","1920x1080","1920x937","FeedbackOnly","AliceSportIntoFeedbackOnly","AliceSportIntoFeedbackOnly",4,"1",1,"Screen 1","advancementZone","continue_button",28040.3303030323,NA,NA,"",NA,"ReadyForExperiment"
"13",1604071488248,1,"30/10/2020 16:24:48","BLIND",3112307,NA,"complete",NA,"5f9c2eee84865f085ddc80ab","computer","Desktop or Laptop","Windows 10","Chrome 86.0.4240.111","1920x1080","1920x937","FeedbackOnly","AliceSportIntoFeedbackOnly","",NA,"END TASK",NA,"","","",292024,NA,NA,"",NA,""
"2",1604071204182,1,"30/10/2020 16:20:04","BLIND",3112307,NA,"complete",NA,"5f9c2eee84865f085ddc80ab","computer","Desktop or Laptop","Windows 10","Chrome 86.0.4240.111","1920x1080","1920x937","FeedbackOnly","AliceSportIntoFeedbackOnly","AliceSportIntoFeedbackOnly",1,"1",1,"Screen 1","advancementZone","continue_button",28040.3303030323,NA,NA,"",NA,"IntroAlice"
"3",1604071310479,1,"30/10/2020 16:21:50","BLIND",3112307,NA,"complete",NA,"5f9c2eee84865f085ddc80ab","computer","Desktop or Laptop","Windows 10","Chrome 86.0.4240.111","1920x1080","1920x937","FeedbackOnly","AliceSportIntoFeedbackOnly","AliceSportIntoFeedbackOnly",2,"1",1,"Screen 1","content","content_video",28040.3303030323,NA,NA,"",NA,"AliceFeedbackOnlyIntroVid"
"4",1604071313284,1,"30/10/2020 16:21:53","BLIND",3112307,NA,"complete",NA,"5f9c2eee84865f085ddc80ab","computer","Desktop or Laptop","Windows 10","Chrome 86.0.4240.111","1920x1080","1920x937","FeedbackOnly","AliceSportIntoFeedbackOnly","AliceSportIntoFeedbackOnly",2,"1",2,"Klaar4Sporten","advancementZone","continue_button",28040.3303030323,NA,NA,"",NA,"AliceFeedbackOnlyIntroVid"
"5",1604071356292,1,"30/10/2020 16:22:36","BLIND",3112307,NA,"complete",NA,"5f9c2eee84865f085ddc80ab","computer","Desktop or Laptop","Windows 10","Chrome 86.0.4240.111","1920x1080","1920x937","FeedbackOnly","AliceSportIntoFeedbackOnly","AliceSportIntoFeedbackOnly",3,"1",1,"Text","advancementZone","continue_button",28040.3303030323,NA,NA,"",NA,"SportenFeedbackOnly"
"6",1604071365013,1,"30/10/2020 16:22:45","BLIND",3112307,NA,"complete",NA,"5f9c2eee84865f085ddc80ab","computer","Desktop or Laptop","Windows 10","Chrome 86.0.4240.111","1920x1080","1920x937","FeedbackOnly","AliceSportIntoFeedbackOnly","AliceSportIntoFeedbackOnly",3,"1",2,"JoL1","Two","response_button_text",28040.3303030323,NA,NA,"2",1,"SportenFeedbackOnly"
"7",1604071380676,1,"30/10/2020 16:23:00","BLIND",3112307,NA,"complete",NA,"5f9c2eee84865f085ddc80ab","computer","Desktop or Laptop","Windows 10","Chrome 86.0.4240.111","1920x1080","1920x937","FeedbackOnly","AliceSportIntoFeedbackOnly","AliceSportIntoFeedbackOnly",3,"1",3,"Feedback","Zone1","continue_button",28040.3303030323,NA,NA,"",NA,"SportenFeedbackOnly"
"8",1604071387029,1,"30/10/2020 16:23:07","BLIND",3112307,NA,"complete",NA,"5f9c2eee84865f085ddc80ab","computer","Desktop or Laptop","Windows 10","Chrome 86.0.4240.111","1920x1080","1920x937","FeedbackOnly","AliceSportIntoFeedbackOnly","AliceSportIntoFeedbackOnly",3,"1",4,"JoL2","Two","response_button_text",28040.3303030323,NA,NA,"2",1,"SportenFeedbackOnly"
"9",1604071393925,1,"30/10/2020 16:23:13","BLIND",3112307,NA,"complete",NA,"5f9c2eee84865f085ddc80ab","computer","Desktop or Laptop","Windows 10","Chrome 86.0.4240.111","1920x1080","1920x937","FeedbackOnly","AliceSportIntoFeedbackOnly","AliceSportIntoFeedbackOnly",3,"1",5,"InstructieToets","advancementZone","continue_button",28040.3303030323,NA,NA,"",NA,"SportenFeedbackOnly"
"1",1604837476579,1,"08/11/2020 13:11:16","BLIND",3361836,NA,"complete",NA,"5fa7dfd76ed0e857a01badf2","computer","Desktop or Laptop","Windows 10","Edge 86.0.622.63","1366x768","1366x667","FeedbackOnly","AliceSportIntoFeedbackOnly","",NA,"BEGIN TASK",NA,"","","",NA,NA,NA,"",NA,""
"10",1604837762788,1,"08/11/2020 13:16:02","BLIND",3361836,NA,"complete",NA,"5fa7dfd76ed0e857a01badf2","computer","Desktop or Laptop","Windows 10","Edge 86.0.622.63","1366x768","1366x667","FeedbackOnly","AliceSportIntoFeedbackOnly","AliceSportIntoFeedbackOnly",3,"1",6,"Test","buttonA","response_text_area",28040.3303030323,NA,NA,"aEG",NA,"SportenFeedbackOnly"
"11",1604837762790,1,"08/11/2020 13:16:02","BLIND",3361836,NA,"complete",NA,"5fa7dfd76ed0e857a01badf2","computer","Desktop or Laptop","Windows 10","Edge 86.0.622.63","1366x768","1366x667","FeedbackOnly","AliceSportIntoFeedbackOnly","AliceSportIntoFeedbackOnly",3,"1",6,"Test","buttonB","continue_button",28040.3303030323,NA,NA,"",NA,"SportenFeedbackOnly"
"12",1604837764887,1,"08/11/2020 13:16:04","BLIND",3361836,NA,"complete",NA,"5fa7dfd76ed0e857a01badf2","computer","Desktop or Laptop","Windows 10","Edge 86.0.622.63","1366x768","1366x667","FeedbackOnly","AliceSportIntoFeedbackOnly","AliceSportIntoFeedbackOnly",4,"1",1,"Screen 1","advancementZone","continue_button",28040.3303030323,NA,NA,"",NA,"ReadyForExperiment"
"13",1604837764891,1,"08/11/2020 13:16:04","BLIND",3361836,NA,"complete",NA,"5fa7dfd76ed0e857a01badf2","computer","Desktop or Laptop","Windows 10","Edge 86.0.622.63","1366x768","1366x667","FeedbackOnly","AliceSportIntoFeedbackOnly","",NA,"END TASK",NA,"","","",288312,NA,NA,"",NA,""
"2",1604837488198,1,"08/11/2020 13:11:28","BLIND",3361836,NA,"complete",NA,"5fa7dfd76ed0e857a01badf2","computer","Desktop or Laptop","Windows 10","Edge 86.0.622.63","1366x768","1366x667","FeedbackOnly","AliceSportIntoFeedbackOnly","AliceSportIntoFeedbackOnly",1,"1",1,"Screen 1","advancementZone","continue_button",28040.3303030323,NA,NA,"",NA,"IntroAlice"
"3",1604837594491,1,"08/11/2020 13:13:14","BLIND",3361836,NA,"complete",NA,"5fa7dfd76ed0e857a01badf2","computer","Desktop or Laptop","Windows 10","Edge 86.0.622.63","1366x768","1366x667","FeedbackOnly","AliceSportIntoFeedbackOnly","AliceSportIntoFeedbackOnly",2,"1",1,"Screen 1","content","content_video",28040.3303030323,NA,NA,"",NA,"AliceFeedbackOnlyIntroVid"
"4",1604837612840,1,"08/11/2020 13:13:32","BLIND",3361836,NA,"complete",NA,"5fa7dfd76ed0e857a01badf2","computer","Desktop or Laptop","Windows 10","Edge 86.0.622.63","1366x768","1366x667","FeedbackOnly","AliceSportIntoFeedbackOnly","AliceSportIntoFeedbackOnly",2,"1",2,"Klaar4Sporten","advancementZone","continue_button",28040.3303030323,NA,NA,"",NA,"AliceFeedbackOnlyIntroVid"
"5",1604837647793,1,"08/11/2020 13:14:07","BLIND",3361836,NA,"complete",NA,"5fa7dfd76ed0e857a01badf2","computer","Desktop or Laptop","Windows 10","Edge 86.0.622.63","1366x768","1366x667","FeedbackOnly","AliceSportIntoFeedbackOnly","AliceSportIntoFeedbackOnly",3,"1",1,"Text","advancementZone","continue_button",28040.3303030323,NA,NA,"",NA,"SportenFeedbackOnly"
"6",1604837657601,1,"08/11/2020 13:14:17","BLIND",3361836,NA,"complete",NA,"5fa7dfd76ed0e857a01badf2","computer","Desktop or Laptop","Windows 10","Edge 86.0.622.63","1366x768","1366x667","FeedbackOnly","AliceSportIntoFeedbackOnly","AliceSportIntoFeedbackOnly",3,"1",2,"JoL1","Three","response_button_text",28040.3303030323,NA,NA,"2",1,"SportenFeedbackOnly"
"7",1604837668289,1,"08/11/2020 13:14:28","BLIND",3361836,NA,"complete",NA,"5fa7dfd76ed0e857a01badf2","computer","Desktop or Laptop","Windows 10","Edge 86.0.622.63","1366x768","1366x667","FeedbackOnly","AliceSportIntoFeedbackOnly","AliceSportIntoFeedbackOnly",3,"1",3,"Feedback","Zone1","continue_button",28040.3303030323,NA,NA,"",NA,"SportenFeedbackOnly"
"8",1604837669696,1,"08/11/2020 13:14:29","BLIND",3361836,NA,"complete",NA,"5fa7dfd76ed0e857a01badf2","computer","Desktop or Laptop","Windows 10","Edge 86.0.622.63","1366x768","1366x667","FeedbackOnly","AliceSportIntoFeedbackOnly","AliceSportIntoFeedbackOnly",3,"1",4,"JoL2","Three","response_button_text",28040.3303030323,NA,NA,"2",1,"SportenFeedbackOnly"
"9",1604837672864,1,"08/11/2020 13:14:32","BLIND",3361836,NA,"complete",NA,"5fa7dfd76ed0e857a01badf2","computer","Desktop or Laptop","Windows 10","Edge 86.0.622.63","1366x768","1366x667","FeedbackOnly","AliceSportIntoFeedbackOnly","AliceSportIntoFeedbackOnly",3,"1",5,"InstructieToets","advancementZone","continue_button",28040.3303030323,NA,NA,"",NA,"SportenFeedbackOnly"
"1",1604434309873,1,"03/11/2020 21:11:49","BLIND",3464819,NA,"complete",NA,"5fa1b95885210a323c220fc6","computer","Desktop or Laptop","Windows 10","Firefox 82.0","1536x864","1536x750","FeedbackOnly","AliceSportIntoFeedbackOnly","",NA,"BEGIN TASK",NA,"","","",NA,NA,NA,"",NA,""
"10",1604434548139,1,"03/11/2020 21:15:48","BLIND",3464819,NA,"complete",NA,"5fa1b95885210a323c220fc6","computer","Desktop or Laptop","Windows 10","Firefox 82.0","1536x864","1536x750","FeedbackOnly","AliceSportIntoFeedbackOnly","AliceSportIntoFeedbackOnly",3,"1",6,"Test","buttonA","response_text_area",28040.3303030323,NA,NA,"hmX5DI00",NA,"SportenFeedbackOnly"
"11",1604434548141,1,"03/11/2020 21:15:48","BLIND",3464819,NA,"complete",NA,"5fa1b95885210a323c220fc6","computer","Desktop or Laptop","Windows 10","Firefox 82.0","1536x864","1536x750","FeedbackOnly","AliceSportIntoFeedbackOnly","AliceSportIntoFeedbackOnly",3,"1",6,"Test","buttonB","continue_button",28040.3303030323,NA,NA,"",NA,"SportenFeedbackOnly"
"12",1604434549633,1,"03/11/2020 21:15:49","BLIND",3464819,NA,"complete",NA,"5fa1b95885210a323c220fc6","computer","Desktop or Laptop","Windows 10","Firefox 82.0","1536x864","1536x750","FeedbackOnly","AliceSportIntoFeedbackOnly","AliceSportIntoFeedbackOnly",4,"1",1,"Screen 1","advancementZone","continue_button",28040.3303030323,NA,NA,"",NA,"ReadyForExperiment"
"13",1604434549635,1,"03/11/2020 21:15:49","BLIND",3464819,NA,"complete",NA,"5fa1b95885210a323c220fc6","computer","Desktop or Laptop","Windows 10","Firefox 82.0","1536x864","1536x750","FeedbackOnly","AliceSportIntoFeedbackOnly","",NA,"END TASK",NA,"","","",239762,NA,NA,"",NA,""
"2",1604434311689,1,"03/11/2020 21:11:51","BLIND",3464819,NA,"complete",NA,"5fa1b95885210a323c220fc6","computer","Desktop or Laptop","Windows 10","Firefox 82.0","1536x864","1536x750","FeedbackOnly","AliceSportIntoFeedbackOnly","AliceSportIntoFeedbackOnly",1,"1",1,"Screen 1","advancementZone","continue_button",28040.3303030323,NA,NA,"",NA,"IntroAlice"
"3",1604434418703,1,"03/11/2020 21:13:38","BLIND",3464819,NA,"complete",NA,"5fa1b95885210a323c220fc6","computer","Desktop or Laptop","Windows 10","Firefox 82.0","1536x864","1536x750","FeedbackOnly","AliceSportIntoFeedbackOnly","AliceSportIntoFeedbackOnly",2,"1",1,"Screen 1","content","content_video",28040.3303030323,NA,NA,"",NA,"AliceFeedbackOnlyIntroVid"
"4",1604434420664,1,"03/11/2020 21:13:40","BLIND",3464819,NA,"complete",NA,"5fa1b95885210a323c220fc6","computer","Desktop or Laptop","Windows 10","Firefox 82.0","1536x864","1536x750","FeedbackOnly","AliceSportIntoFeedbackOnly","AliceSportIntoFeedbackOnly",2,"1",2,"Klaar4Sporten","advancementZone","continue_button",28040.3303030323,NA,NA,"",NA,"AliceFeedbackOnlyIntroVid"
"5",1604434444826,1,"03/11/2020 21:14:04","BLIND",3464819,NA,"complete",NA,"5fa1b95885210a323c220fc6","computer","Desktop or Laptop","Windows 10","Firefox 82.0","1536x864","1536x750","FeedbackOnly","AliceSportIntoFeedbackOnly","AliceSportIntoFeedbackOnly",3,"1",1,"Text","advancementZone","continue_button",28040.3303030323,NA,NA,"",NA,"SportenFeedbackOnly"
"6",1604434446884,1,"03/11/2020 21:14:06","BLIND",3464819,NA,"complete",NA,"5fa1b95885210a323c220fc6","computer","Desktop or Laptop","Windows 10","Firefox 82.0","1536x864","1536x750","FeedbackOnly","AliceSportIntoFeedbackOnly","AliceSportIntoFeedbackOnly",3,"1",2,"JoL1","Three","response_button_text",28040.3303030323,NA,NA,"2",1,"SportenFeedbackOnly"
"7",1604434455019,1,"03/11/2020 21:14:15","BLIND",3464819,NA,"complete",NA,"5fa1b95885210a323c220fc6","computer","Desktop or Laptop","Windows 10","Firefox 82.0","1536x864","1536x750","FeedbackOnly","AliceSportIntoFeedbackOnly","AliceSportIntoFeedbackOnly",3,"1",3,"Feedback","Zone1","continue_button",28040.3303030323,NA,NA,"",NA,"SportenFeedbackOnly"
"8",1604434456899,1,"03/11/2020 21:14:16","BLIND",3464819,NA,"complete",NA,"5fa1b95885210a323c220fc6","computer","Desktop or Laptop","Windows 10","Firefox 82.0","1536x864","1536x750","FeedbackOnly","AliceSportIntoFeedbackOnly","AliceSportIntoFeedbackOnly",3,"1",4,"JoL2","Three","response_button_text",28040.3303030323,NA,NA,"2",1,"SportenFeedbackOnly"
"9",1604434458980,1,"03/11/2020 21:14:18","BLIND",3464819,NA,"complete",NA,"5fa1b95885210a323c220fc6","computer","Desktop or Laptop","Windows 10","Firefox 82.0","1536x864","1536x750","FeedbackOnly","AliceSportIntoFeedbackOnly","AliceSportIntoFeedbackOnly",3,"1",5,"InstructieToets","advancementZone","continue_button",28040.3303030323,NA,NA,"",NA,"SportenFeedbackOnly"
"1",1604418452636,1,"03/11/2020 16:47:32","BLIND",3903094,NA,"complete",NA,"5fa17b23b76ab21415cdba45","computer","Desktop or Laptop","Windows 10","Chrome 86.0.4240.111","1280x720","1280x610","FeedbackOnly","AliceSportIntoFeedbackOnly","",NA,"BEGIN TASK",NA,"","","",NA,NA,NA,"",NA,""
"10",1604418882799,1,"03/11/2020 16:54:42","BLIND",3903094,NA,"complete",NA,"5fa17b23b76ab21415cdba45","computer","Desktop or Laptop","Windows 10","Chrome 86.0.4240.111","1280x720","1280x610","FeedbackOnly","AliceSportIntoFeedbackOnly","AliceSportIntoFeedbackOnly",3,"1",6,"Test","buttonA","response_text_area",28040.3303030323,NA,NA,"wfFvlV4r",NA,"SportenFeedbackOnly"
"11",1604418882801,1,"03/11/2020 16:54:42","BLIND",3903094,NA,"complete",NA,"5fa17b23b76ab21415cdba45","computer","Desktop or Laptop","Windows 10","Chrome 86.0.4240.111","1280x720","1280x610","FeedbackOnly","AliceSportIntoFeedbackOnly","AliceSportIntoFeedbackOnly",3,"1",6,"Test","buttonB","continue_button",28040.3303030323,NA,NA,"",NA,"SportenFeedbackOnly"
"12",1604418886078,1,"03/11/2020 16:54:46","BLIND",3903094,NA,"complete",NA,"5fa17b23b76ab21415cdba45","computer","Desktop or Laptop","Windows 10","Chrome 86.0.4240.111","1280x720","1280x610","FeedbackOnly","AliceSportIntoFeedbackOnly","AliceSportIntoFeedbackOnly",4,"1",1,"Screen 1","advancementZone","continue_button",28040.3303030323,NA,NA,"",NA,"ReadyForExperiment"
"13",1604418886081,1,"03/11/2020 16:54:46","BLIND",3903094,NA,"complete",NA,"5fa17b23b76ab21415cdba45","computer","Desktop or Laptop","Windows 10","Chrome 86.0.4240.111","1280x720","1280x610","FeedbackOnly","AliceSportIntoFeedbackOnly","",NA,"END TASK",NA,"","","",433445,NA,NA,"",NA,""
"2",1604418461115,1,"03/11/2020 16:47:41","BLIND",3903094,NA,"complete",NA,"5fa17b23b76ab21415cdba45","computer","Desktop or Laptop","Windows 10","Chrome 86.0.4240.111","1280x720","1280x610","FeedbackOnly","AliceSportIntoFeedbackOnly","AliceSportIntoFeedbackOnly",1,"1",1,"Screen 1","advancementZone","continue_button",28040.3303030323,NA,NA,"",NA,"IntroAlice"
"3",1604418567540,1,"03/11/2020 16:49:27","BLIND",3903094,NA,"complete",NA,"5fa17b23b76ab21415cdba45","computer","Desktop or Laptop","Windows 10","Chrome 86.0.4240.111","1280x720","1280x610","FeedbackOnly","AliceSportIntoFeedbackOnly","AliceSportIntoFeedbackOnly",2,"1",1,"Screen 1","content","content_video",28040.3303030323,NA,NA,"",NA,"AliceFeedbackOnlyIntroVid"
"4",1604418574346,1,"03/11/2020 16:49:34","BLIND",3903094,NA,"complete",NA,"5fa17b23b76ab21415cdba45","computer","Desktop or Laptop","Windows 10","Chrome 86.0.4240.111","1280x720","1280x610","FeedbackOnly","AliceSportIntoFeedbackOnly","AliceSportIntoFeedbackOnly",2,"1",2,"Klaar4Sporten","advancementZone","continue_button",28040.3303030323,NA,NA,"",NA,"AliceFeedbackOnlyIntroVid"
"5",1604418672594,1,"03/11/2020 16:51:12","BLIND",3903094,NA,"complete",NA,"5fa17b23b76ab21415cdba45","computer","Desktop or Laptop","Windows 10","Chrome 86.0.4240.111","1280x720","1280x610","FeedbackOnly","AliceSportIntoFeedbackOnly","AliceSportIntoFeedbackOnly",3,"1",1,"Text","advancementZone","continue_button",28040.3303030323,NA,NA,"",NA,"SportenFeedbackOnly"
"6",1604418679574,1,"03/11/2020 16:51:19","BLIND",3903094,NA,"complete",NA,"5fa17b23b76ab21415cdba45","computer","Desktop or Laptop","Windows 10","Chrome 86.0.4240.111","1280x720","1280x610","FeedbackOnly","AliceSportIntoFeedbackOnly","AliceSportIntoFeedbackOnly",3,"1",2,"JoL1","Three","response_button_text",28040.3303030323,NA,NA,"2",1,"SportenFeedbackOnly"
"7",1604418774299,1,"03/11/2020 16:52:54","BLIND",3903094,NA,"complete",NA,"5fa17b23b76ab21415cdba45","computer","Desktop or Laptop","Windows 10","Chrome 86.0.4240.111","1280x720","1280x610","FeedbackOnly","AliceSportIntoFeedbackOnly","AliceSportIntoFeedbackOnly",3,"1",3,"Feedback","Zone1","continue_button",28040.3303030323,NA,NA,"",NA,"SportenFeedbackOnly"
"8",1604418777049,1,"03/11/2020 16:52:57","BLIND",3903094,NA,"complete",NA,"5fa17b23b76ab21415cdba45","computer","Desktop or Laptop","Windows 10","Chrome 86.0.4240.111","1280x720","1280x610","FeedbackOnly","AliceSportIntoFeedbackOnly","AliceSportIntoFeedbackOnly",3,"1",4,"JoL2","Three","response_button_text",28040.3303030323,NA,NA,"2",1,"SportenFeedbackOnly"
"9",1604418780315,1,"03/11/2020 16:53:00","BLIND",3903094,NA,"complete",NA,"5fa17b23b76ab21415cdba45","computer","Desktop or Laptop","Windows 10","Chrome 86.0.4240.111","1280x720","1280x610","FeedbackOnly","AliceSportIntoFeedbackOnly","AliceSportIntoFeedbackOnly",3,"1",5,"InstructieToets","advancementZone","continue_button",28040.3303030323,NA,NA,"",NA,"SportenFeedbackOnly"
"1",1604099648476,1,"31/10/2020 00:14:08","BLIND",4264738,NA,"complete",NA,"5f9c9dae36d734170fd9af0c","computer","Desktop or Laptop","Windows 10","Chrome 86.0.4240.111","1920x1080","1920x969","FeedbackOnly","AliceSportIntoFeedbackOnly","",NA,"BEGIN TASK",NA,"","","",NA,NA,NA,"",NA,""
"10",1604099977118,1,"31/10/2020 00:19:37","BLIND",4264738,NA,"complete",NA,"5f9c9dae36d734170fd9af0c","computer","Desktop or Laptop","Windows 10","Chrome 86.0.4240.111","1920x1080","1920x969","FeedbackOnly","AliceSportIntoFeedbackOnly","AliceSportIntoFeedbackOnly",3,"1",6,"Test","buttonA","response_text_area",28040.3303030323,NA,NA,"0r9HqI",NA,"SportenFeedbackOnly"
"11",1604099977125,1,"31/10/2020 00:19:37","BLIND",4264738,NA,"complete",NA,"5f9c9dae36d734170fd9af0c","computer","Desktop or Laptop","Windows 10","Chrome 86.0.4240.111","1920x1080","1920x969","FeedbackOnly","AliceSportIntoFeedbackOnly","AliceSportIntoFeedbackOnly",3,"1",6,"Test","buttonB","continue_button",28040.3303030323,NA,NA,"",NA,"SportenFeedbackOnly"
"12",1604099980831,1,"31/10/2020 00:19:40","BLIND",4264738,NA,"complete",NA,"5f9c9dae36d734170fd9af0c","computer","Desktop or Laptop","Windows 10","Chrome 86.0.4240.111","1920x1080","1920x969","FeedbackOnly","AliceSportIntoFeedbackOnly","AliceSportIntoFeedbackOnly",4,"1",1,"Screen 1","advancementZone","continue_button",28040.3303030323,NA,NA,"",NA,"ReadyForExperiment"
"13",1604099980833,1,"31/10/2020 00:19:40","BLIND",4264738,NA,"complete",NA,"5f9c9dae36d734170fd9af0c","computer","Desktop or Laptop","Windows 10","Chrome 86.0.4240.111","1920x1080","1920x969","FeedbackOnly","AliceSportIntoFeedbackOnly","",NA,"END TASK",NA,"","","",332357,NA,NA,"",NA,""
"2",1604099652449,1,"31/10/2020 00:14:12","BLIND",4264738,NA,"complete",NA,"5f9c9dae36d734170fd9af0c","computer","Desktop or Laptop","Windows 10","Chrome 86.0.4240.111","1920x1080","1920x969","FeedbackOnly","AliceSportIntoFeedbackOnly","AliceSportIntoFeedbackOnly",1,"1",1,"Screen 1","advancementZone","continue_button",28040.3303030323,NA,NA,"",NA,"IntroAlice"
"3",1604099758768,1,"31/10/2020 00:15:58","BLIND",4264738,NA,"complete",NA,"5f9c9dae36d734170fd9af0c","computer","Desktop or Laptop","Windows 10","Chrome 86.0.4240.111","1920x1080","1920x969","FeedbackOnly","AliceSportIntoFeedbackOnly","AliceSportIntoFeedbackOnly",2,"1",1,"Screen 1","content","content_video",28040.3303030323,NA,NA,"",NA,"AliceFeedbackOnlyIntroVid"
"4",1604099761933,1,"31/10/2020 00:16:01","BLIND",4264738,NA,"complete",NA,"5f9c9dae36d734170fd9af0c","computer","Desktop or Laptop","Windows 10","Chrome 86.0.4240.111","1920x1080","1920x969","FeedbackOnly","AliceSportIntoFeedbackOnly","AliceSportIntoFeedbackOnly",2,"1",2,"Klaar4Sporten","advancementZone","continue_button",28040.3303030323,NA,NA,"",NA,"AliceFeedbackOnlyIntroVid"
"5",1604099819632,1,"31/10/2020 00:16:59","BLIND",4264738,NA,"complete",NA,"5f9c9dae36d734170fd9af0c","computer","Desktop or Laptop","Windows 10","Chrome 86.0.4240.111","1920x1080","1920x969","FeedbackOnly","AliceSportIntoFeedbackOnly","AliceSportIntoFeedbackOnly",3,"1",1,"Text","advancementZone","continue_button",28040.3303030323,NA,NA,"",NA,"SportenFeedbackOnly"
"6",1604099822169,1,"31/10/2020 00:17:02","BLIND",4264738,NA,"complete",NA,"5f9c9dae36d734170fd9af0c","computer","Desktop or Laptop","Windows 10","Chrome 86.0.4240.111","1920x1080","1920x969","FeedbackOnly","AliceSportIntoFeedbackOnly","AliceSportIntoFeedbackOnly",3,"1",2,"JoL1","Three","response_button_text",28040.3303030323,NA,NA,"2",1,"SportenFeedbackOnly"
"7",1604099840213,1,"31/10/2020 00:17:20","BLIND",4264738,NA,"complete",NA,"5f9c9dae36d734170fd9af0c","computer","Desktop or Laptop","Windows 10","Chrome 86.0.4240.111","1920x1080","1920x969","FeedbackOnly","AliceSportIntoFeedbackOnly","AliceSportIntoFeedbackOnly",3,"1",3,"Feedback","Zone1","continue_button",28040.3303030323,NA,NA,"",NA,"SportenFeedbackOnly"
"8",1604099843386,1,"31/10/2020 00:17:23","BLIND",4264738,NA,"complete",NA,"5f9c9dae36d734170fd9af0c","computer","Desktop or Laptop","Windows 10","Chrome 86.0.4240.111","1920x1080","1920x969","FeedbackOnly","AliceSportIntoFeedbackOnly","AliceSportIntoFeedbackOnly",3,"1",4,"JoL2","Four","response_button_text",28040.3303030323,NA,NA,"2",1,"SportenFeedbackOnly"
"9",1604099845496,1,"31/10/2020 00:17:25","BLIND",4264738,NA,"complete",NA,"5f9c9dae36d734170fd9af0c","computer","Desktop or Laptop","Windows 10","Chrome 86.0.4240.111","1920x1080","1920x969","FeedbackOnly","AliceSportIntoFeedbackOnly","AliceSportIntoFeedbackOnly",3,"1",5,"InstructieToets","advancementZone","continue_button",28040.3303030323,NA,NA,"",NA,"SportenFeedbackOnly"
"1",1604073747171,1,"30/10/2020 17:02:27","BLIND",4693280,NA,"complete",NA,"5f9c38a335e32509a4ab4f0c","computer","Desktop or Laptop","Windows 10","Chrome 86.0.4240.111","1920x1080","1920x1007","FeedbackOnly","AliceSportIntoFeedbackOnly","",NA,"BEGIN TASK",NA,"","","",NA,NA,NA,"",NA,""
"10",1604073996311,1,"30/10/2020 17:06:36","BLIND",4693280,NA,"complete",NA,"5f9c38a335e32509a4ab4f0c","computer","Desktop or Laptop","Windows 10","Chrome 86.0.4240.111","1920x1080","1920x1007","FeedbackOnly","AliceSportIntoFeedbackOnly","AliceSportIntoFeedbackOnly",3,"1",6,"Test","buttonA","response_text_area",28040.3303030323,NA,NA,"CR",NA,"SportenFeedbackOnly"
"11",1604073996313,1,"30/10/2020 17:06:36","BLIND",4693280,NA,"complete",NA,"5f9c38a335e32509a4ab4f0c","computer","Desktop or Laptop","Windows 10","Chrome 86.0.4240.111","1920x1080","1920x1007","FeedbackOnly","AliceSportIntoFeedbackOnly","AliceSportIntoFeedbackOnly",3,"1",6,"Test","buttonB","continue_button",28040.3303030323,NA,NA,"",NA,"SportenFeedbackOnly"
"12",1604073998247,1,"30/10/2020 17:06:38","BLIND",4693280,NA,"complete",NA,"5f9c38a335e32509a4ab4f0c","computer","Desktop or Laptop","Windows 10","Chrome 86.0.4240.111","1920x1080","1920x1007","FeedbackOnly","AliceSportIntoFeedbackOnly","AliceSportIntoFeedbackOnly",4,"1",1,"Screen 1","advancementZone","continue_button",28040.3303030323,NA,NA,"",NA,"ReadyForExperiment"
"13",1604073998249,1,"30/10/2020 17:06:38","BLIND",4693280,NA,"complete",NA,"5f9c38a335e32509a4ab4f0c","computer","Desktop or Laptop","Windows 10","Chrome 86.0.4240.111","1920x1080","1920x1007","FeedbackOnly","AliceSportIntoFeedbackOnly","",NA,"END TASK",NA,"","","",251078,NA,NA,"",NA,""
"2",1604073752545,1,"30/10/2020 17:02:32","BLIND",4693280,NA,"complete",NA,"5f9c38a335e32509a4ab4f0c","computer","Desktop or Laptop","Windows 10","Chrome 86.0.4240.111","1920x1080","1920x1007","FeedbackOnly","AliceSportIntoFeedbackOnly","AliceSportIntoFeedbackOnly",1,"1",1,"Screen 1","advancementZone","continue_button",28040.3303030323,NA,NA,"",NA,"IntroAlice"
"3",1604073858838,1,"30/10/2020 17:04:18","BLIND",4693280,NA,"complete",NA,"5f9c38a335e32509a4ab4f0c","computer","Desktop or Laptop","Windows 10","Chrome 86.0.4240.111","1920x1080","1920x1007","FeedbackOnly","AliceSportIntoFeedbackOnly","AliceSportIntoFeedbackOnly",2,"1",1,"Screen 1","content","content_video",28040.3303030323,NA,NA,"",NA,"AliceFeedbackOnlyIntroVid"
"4",1604073862177,1,"30/10/2020 17:04:22","BLIND",4693280,NA,"complete",NA,"5f9c38a335e32509a4ab4f0c","computer","Desktop or Laptop","Windows 10","Chrome 86.0.4240.111","1920x1080","1920x1007","FeedbackOnly","AliceSportIntoFeedbackOnly","AliceSportIntoFeedbackOnly",2,"1",2,"Klaar4Sporten","advancementZone","continue_button",28040.3303030323,NA,NA,"",NA,"AliceFeedbackOnlyIntroVid"
"5",1604073904845,1,"30/10/2020 17:05:04","BLIND",4693280,NA,"complete",NA,"5f9c38a335e32509a4ab4f0c","computer","Desktop or Laptop","Windows 10","Chrome 86.0.4240.111","1920x1080","1920x1007","FeedbackOnly","AliceSportIntoFeedbackOnly","AliceSportIntoFeedbackOnly",3,"1",1,"Text","advancementZone","continue_button",28040.3303030323,NA,NA,"",NA,"SportenFeedbackOnly"
"6",1604073907315,1,"30/10/2020 17:05:07","BLIND",4693280,NA,"complete",NA,"5f9c38a335e32509a4ab4f0c","computer","Desktop or Laptop","Windows 10","Chrome 86.0.4240.111","1920x1080","1920x1007","FeedbackOnly","AliceSportIntoFeedbackOnly","AliceSportIntoFeedbackOnly",3,"1",2,"JoL1","Three","response_button_text",28040.3303030323,NA,NA,"2",1,"SportenFeedbackOnly"
"7",1604073915678,1,"30/10/2020 17:05:15","BLIND",4693280,NA,"complete",NA,"5f9c38a335e32509a4ab4f0c","computer","Desktop or Laptop","Windows 10","Chrome 86.0.4240.111","1920x1080","1920x1007","FeedbackOnly","AliceSportIntoFeedbackOnly","AliceSportIntoFeedbackOnly",3,"1",3,"Feedback","Zone1","continue_button",28040.3303030323,NA,NA,"",NA,"SportenFeedbackOnly"
"8",1604073921202,1,"30/10/2020 17:05:21","BLIND",4693280,NA,"complete",NA,"5f9c38a335e32509a4ab4f0c","computer","Desktop or Laptop","Windows 10","Chrome 86.0.4240.111","1920x1080","1920x1007","FeedbackOnly","AliceSportIntoFeedbackOnly","AliceSportIntoFeedbackOnly",3,"1",4,"JoL2","Three","response_button_text",28040.3303030323,NA,NA,"2",1,"SportenFeedbackOnly"
"9",1604073922319,1,"30/10/2020 17:05:22","BLIND",4693280,NA,"complete",NA,"5f9c38a335e32509a4ab4f0c","computer","Desktop or Laptop","Windows 10","Chrome 86.0.4240.111","1920x1080","1920x1007","FeedbackOnly","AliceSportIntoFeedbackOnly","AliceSportIntoFeedbackOnly",3,"1",5,"InstructieToets","advancementZone","continue_button",28040.3303030323,NA,NA,"",NA,"SportenFeedbackOnly"
"1",1604138062841,1,"31/10/2020 10:54:22","BLIND",4860693,NA,"complete",NA,"5f9d33c93d44de23118b3af0","computer","Desktop or Laptop","Windows 10","Firefox 81.0","1920x1080","1920x938","FeedbackOnly","AliceSportIntoFeedbackOnly","",NA,"BEGIN TASK",NA,"","","",NA,NA,NA,"",NA,""
"10",1604138316899,1,"31/10/2020 10:58:36","BLIND",4860693,NA,"complete",NA,"5f9d33c93d44de23118b3af0","computer","Desktop or Laptop","Windows 10","Firefox 81.0","1920x1080","1920x938","FeedbackOnly","AliceSportIntoFeedbackOnly","AliceSportIntoFeedbackOnly",3,"1",6,"Test","buttonA","response_text_area",28040.3303030323,NA,NA,"fauNem",NA,"SportenFeedbackOnly"
"11",1604138316901,1,"31/10/2020 10:58:36","BLIND",4860693,NA,"complete",NA,"5f9d33c93d44de23118b3af0","computer","Desktop or Laptop","Windows 10","Firefox 81.0","1920x1080","1920x938","FeedbackOnly","AliceSportIntoFeedbackOnly","AliceSportIntoFeedbackOnly",3,"1",6,"Test","buttonB","continue_button",28040.3303030323,NA,NA,"",NA,"SportenFeedbackOnly"
"12",1604138319075,1,"31/10/2020 10:58:39","BLIND",4860693,NA,"complete",NA,"5f9d33c93d44de23118b3af0","computer","Desktop or Laptop","Windows 10","Firefox 81.0","1920x1080","1920x938","FeedbackOnly","AliceSportIntoFeedbackOnly","AliceSportIntoFeedbackOnly",4,"1",1,"Screen 1","advancementZone","continue_button",28040.3303030323,NA,NA,"",NA,"ReadyForExperiment"
"13",1604138319090,1,"31/10/2020 10:58:39","BLIND",4860693,NA,"complete",NA,"5f9d33c93d44de23118b3af0","computer","Desktop or Laptop","Windows 10","Firefox 81.0","1920x1080","1920x938","FeedbackOnly","AliceSportIntoFeedbackOnly","",NA,"END TASK",NA,"","","",256249,NA,NA,"",NA,""
"2",1604138066440,1,"31/10/2020 10:54:26","BLIND",4860693,NA,"complete",NA,"5f9d33c93d44de23118b3af0","computer","Desktop or Laptop","Windows 10","Firefox 81.0","1920x1080","1920x938","FeedbackOnly","AliceSportIntoFeedbackOnly","AliceSportIntoFeedbackOnly",1,"1",1,"Screen 1","advancementZone","continue_button",28040.3303030323,NA,NA,"",NA,"IntroAlice"
"3",1604138173872,1,"31/10/2020 10:56:13","BLIND",4860693,NA,"complete",NA,"5f9d33c93d44de23118b3af0","computer","Desktop or Laptop","Windows 10","Firefox 81.0","1920x1080","1920x938","FeedbackOnly","AliceSportIntoFeedbackOnly","AliceSportIntoFeedbackOnly",2,"1",1,"Screen 1","content","content_video",28040.3303030323,NA,NA,"",NA,"AliceFeedbackOnlyIntroVid"
"4",1604138176490,1,"31/10/2020 10:56:16","BLIND",4860693,NA,"complete",NA,"5f9d33c93d44de23118b3af0","computer","Desktop or Laptop","Windows 10","Firefox 81.0","1920x1080","1920x938","FeedbackOnly","AliceSportIntoFeedbackOnly","AliceSportIntoFeedbackOnly",2,"1",2,"Klaar4Sporten","advancementZone","continue_button",28040.3303030323,NA,NA,"",NA,"AliceFeedbackOnlyIntroVid"
"5",1604138225295,1,"31/10/2020 10:57:05","BLIND",4860693,NA,"complete",NA,"5f9d33c93d44de23118b3af0","computer","Desktop or Laptop","Windows 10","Firefox 81.0","1920x1080","1920x938","FeedbackOnly","AliceSportIntoFeedbackOnly","AliceSportIntoFeedbackOnly",3,"1",1,"Text","advancementZone","continue_button",28040.3303030323,NA,NA,"",NA,"SportenFeedbackOnly"
"6",1604138228197,1,"31/10/2020 10:57:08","BLIND",4860693,NA,"complete",NA,"5f9d33c93d44de23118b3af0","computer","Desktop or Laptop","Windows 10","Firefox 81.0","1920x1080","1920x938","FeedbackOnly","AliceSportIntoFeedbackOnly","AliceSportIntoFeedbackOnly",3,"1",2,"JoL1","Two","response_button_text",28040.3303030323,NA,NA,"2",1,"SportenFeedbackOnly"
"7",1604138240244,1,"31/10/2020 10:57:20","BLIND",4860693,NA,"complete",NA,"5f9d33c93d44de23118b3af0","computer","Desktop or Laptop","Windows 10","Firefox 81.0","1920x1080","1920x938","FeedbackOnly","AliceSportIntoFeedbackOnly","AliceSportIntoFeedbackOnly",3,"1",3,"Feedback","Zone1","continue_button",28040.3303030323,NA,NA,"",NA,"SportenFeedbackOnly"
"8",1604138241280,1,"31/10/2020 10:57:21","BLIND",4860693,NA,"complete",NA,"5f9d33c93d44de23118b3af0","computer","Desktop or Laptop","Windows 10","Firefox 81.0","1920x1080","1920x938","FeedbackOnly","AliceSportIntoFeedbackOnly","AliceSportIntoFeedbackOnly",3,"1",4,"JoL2","Three","response_button_text",28040.3303030323,NA,NA,"2",1,"SportenFeedbackOnly"
"9",1604138243364,1,"31/10/2020 10:57:23","BLIND",4860693,NA,"complete",NA,"5f9d33c93d44de23118b3af0","computer","Desktop or Laptop","Windows 10","Firefox 81.0","1920x1080","1920x938","FeedbackOnly","AliceSportIntoFeedbackOnly","AliceSportIntoFeedbackOnly",3,"1",5,"InstructieToets","advancementZone","continue_button",28040.3303030323,NA,NA,"",NA,"SportenFeedbackOnly"
"1",1604080982767,1,"30/10/2020 19:03:02","BLIND",5531252,NA,"complete",NA,"5f9c54ef801a250d5e7c691a","computer","Desktop or Laptop","Windows 10","Chrome 86.0.4240.111","1366x768","1366x625","FeedbackOnly","AliceSportIntoFeedbackOnly","",NA,"BEGIN TASK",NA,"","","",NA,NA,NA,"",NA,""
"10",1604081303223,1,"30/10/2020 19:08:23","BLIND",5531252,NA,"complete",NA,"5f9c54ef801a250d5e7c691a","computer","Desktop or Laptop","Windows 10","Chrome 86.0.4240.111","1366x768","1366x625","FeedbackOnly","AliceSportIntoFeedbackOnly","AliceSportIntoFeedbackOnly",3,"1",6,"Test","buttonA","response_text_area",28040.3303030323,NA,NA,"iefNiGOD",NA,"SportenFeedbackOnly"
"11",1604081303225,1,"30/10/2020 19:08:23","BLIND",5531252,NA,"complete",NA,"5f9c54ef801a250d5e7c691a","computer","Desktop or Laptop","Windows 10","Chrome 86.0.4240.111","1366x768","1366x625","FeedbackOnly","AliceSportIntoFeedbackOnly","AliceSportIntoFeedbackOnly",3,"1",6,"Test","buttonB","continue_button",28040.3303030323,NA,NA,"",NA,"SportenFeedbackOnly"
"12",1604081304844,1,"30/10/2020 19:08:24","BLIND",5531252,NA,"complete",NA,"5f9c54ef801a250d5e7c691a","computer","Desktop or Laptop","Windows 10","Chrome 86.0.4240.111","1366x768","1366x625","FeedbackOnly","AliceSportIntoFeedbackOnly","AliceSportIntoFeedbackOnly",4,"1",1,"Screen 1","advancementZone","continue_button",28040.3303030323,NA,NA,"",NA,"ReadyForExperiment"
"13",1604081304848,1,"30/10/2020 19:08:24","BLIND",5531252,NA,"complete",NA,"5f9c54ef801a250d5e7c691a","computer","Desktop or Laptop","Windows 10","Chrome 86.0.4240.111","1366x768","1366x625","FeedbackOnly","AliceSportIntoFeedbackOnly","",NA,"END TASK",NA,"","","",322080,NA,NA,"",NA,""
"2",1604080985685,1,"30/10/2020 19:03:05","BLIND",5531252,NA,"complete",NA,"5f9c54ef801a250d5e7c691a","computer","Desktop or Laptop","Windows 10","Chrome 86.0.4240.111","1366x768","1366x625","FeedbackOnly","AliceSportIntoFeedbackOnly","AliceSportIntoFeedbackOnly",1,"1",1,"Screen 1","advancementZone","continue_button",28040.3303030323,NA,NA,"",NA,"IntroAlice"
"3",1604081092051,1,"30/10/2020 19:04:52","BLIND",5531252,NA,"complete",NA,"5f9c54ef801a250d5e7c691a","computer","Desktop or Laptop","Windows 10","Chrome 86.0.4240.111","1366x768","1366x625","FeedbackOnly","AliceSportIntoFeedbackOnly","AliceSportIntoFeedbackOnly",2,"1",1,"Screen 1","content","content_video",28040.3303030323,NA,NA,"",NA,"AliceFeedbackOnlyIntroVid"
"4",1604081146153,1,"30/10/2020 19:05:46","BLIND",5531252,NA,"complete",NA,"5f9c54ef801a250d5e7c691a","computer","Desktop or Laptop","Windows 10","Chrome 86.0.4240.111","1366x768","1366x625","FeedbackOnly","AliceSportIntoFeedbackOnly","AliceSportIntoFeedbackOnly",2,"1",2,"Klaar4Sporten","advancementZone","continue_button",28040.3303030323,NA,NA,"",NA,"AliceFeedbackOnlyIntroVid"
"5",1604081201575,1,"30/10/2020 19:06:41","BLIND",5531252,NA,"complete",NA,"5f9c54ef801a250d5e7c691a","computer","Desktop or Laptop","Windows 10","Chrome 86.0.4240.111","1366x768","1366x625","FeedbackOnly","AliceSportIntoFeedbackOnly","AliceSportIntoFeedbackOnly",3,"1",1,"Text","advancementZone","continue_button",28040.3303030323,NA,NA,"",NA,"SportenFeedbackOnly"
"6",1604081204366,1,"30/10/2020 19:06:44","BLIND",5531252,NA,"complete",NA,"5f9c54ef801a250d5e7c691a","computer","Desktop or Laptop","Windows 10","Chrome 86.0.4240.111","1366x768","1366x625","FeedbackOnly","AliceSportIntoFeedbackOnly","AliceSportIntoFeedbackOnly",3,"1",2,"JoL1","Three","response_button_text",28040.3303030323,NA,NA,"2",1,"SportenFeedbackOnly"
"7",1604081211086,1,"30/10/2020 19:06:51","BLIND",5531252,NA,"complete",NA,"5f9c54ef801a250d5e7c691a","computer","Desktop or Laptop","Windows 10","Chrome 86.0.4240.111","1366x768","1366x625","FeedbackOnly","AliceSportIntoFeedbackOnly","AliceSportIntoFeedbackOnly",3,"1",3,"Feedback","Zone1","continue_button",28040.3303030323,NA,NA,"",NA,"SportenFeedbackOnly"
"8",1604081213080,1,"30/10/2020 19:06:53","BLIND",5531252,NA,"complete",NA,"5f9c54ef801a250d5e7c691a","computer","Desktop or Laptop","Windows 10","Chrome 86.0.4240.111","1366x768","1366x625","FeedbackOnly","AliceSportIntoFeedbackOnly","AliceSportIntoFeedbackOnly",3,"1",4,"JoL2","Three","response_button_text",28040.3303030323,NA,NA,"2",1,"SportenFeedbackOnly"
"9",1604081215143,1,"30/10/2020 19:06:55","BLIND",5531252,NA,"complete",NA,"5f9c54ef801a250d5e7c691a","computer","Desktop or Laptop","Windows 10","Chrome 86.0.4240.111","1366x768","1366x625","FeedbackOnly","AliceSportIntoFeedbackOnly","AliceSportIntoFeedbackOnly",3,"1",5,"InstructieToets","advancementZone","continue_button",28040.3303030323,NA,NA,"",NA,"SportenFeedbackOnly"
"1",1604744154776,1,"07/11/2020 11:15:54","BLIND",6688089,NA,"complete",NA,"5fa672849326cb28d173277d","computer","Desktop or Laptop","Windows 10","Firefox 82.0","1920x1080","1920x966","FeedbackOnly","AliceSportIntoFeedbackOnly","",NA,"BEGIN TASK",NA,"","","",NA,NA,NA,"",NA,""
"10",1604744440838,1,"07/11/2020 11:20:40","BLIND",6688089,NA,"complete",NA,"5fa672849326cb28d173277d","computer","Desktop or Laptop","Windows 10","Firefox 82.0","1920x1080","1920x966","FeedbackOnly","AliceSportIntoFeedbackOnly","AliceSportIntoFeedbackOnly",3,"1",6,"Test","buttonA","response_text_area",28040.3303030323,NA,NA,"we9OSXuUhs",NA,"SportenFeedbackOnly"
"11",1604744440840,1,"07/11/2020 11:20:40","BLIND",6688089,NA,"complete",NA,"5fa672849326cb28d173277d","computer","Desktop or Laptop","Windows 10","Firefox 82.0","1920x1080","1920x966","FeedbackOnly","AliceSportIntoFeedbackOnly","AliceSportIntoFeedbackOnly",3,"1",6,"Test","buttonB","continue_button",28040.3303030323,NA,NA,"",NA,"SportenFeedbackOnly"
"12",1604744443309,1,"07/11/2020 11:20:43","BLIND",6688089,NA,"complete",NA,"5fa672849326cb28d173277d","computer","Desktop or Laptop","Windows 10","Firefox 82.0","1920x1080","1920x966","FeedbackOnly","AliceSportIntoFeedbackOnly","AliceSportIntoFeedbackOnly",4,"1",1,"Screen 1","advancementZone","continue_button",28040.3303030323,NA,NA,"",NA,"ReadyForExperiment"
"13",1604744443324,1,"07/11/2020 11:20:43","BLIND",6688089,NA,"complete",NA,"5fa672849326cb28d173277d","computer","Desktop or Laptop","Windows 10","Firefox 82.0","1920x1080","1920x966","FeedbackOnly","AliceSportIntoFeedbackOnly","",NA,"END TASK",NA,"","","",288548,NA,NA,"",NA,""
"2",1604744162719,1,"07/11/2020 11:16:02","BLIND",6688089,NA,"complete",NA,"5fa672849326cb28d173277d","computer","Desktop or Laptop","Windows 10","Firefox 82.0","1920x1080","1920x966","FeedbackOnly","AliceSportIntoFeedbackOnly","AliceSportIntoFeedbackOnly",1,"1",1,"Screen 1","advancementZone","continue_button",28040.3303030323,NA,NA,"",NA,"IntroAlice"
"3",1604744269058,1,"07/11/2020 11:17:49","BLIND",6688089,NA,"complete",NA,"5fa672849326cb28d173277d","computer","Desktop or Laptop","Windows 10","Firefox 82.0","1920x1080","1920x966","FeedbackOnly","AliceSportIntoFeedbackOnly","AliceSportIntoFeedbackOnly",2,"1",1,"Screen 1","content","content_video",28040.3303030323,NA,NA,"",NA,"AliceFeedbackOnlyIntroVid"
"4",1604744281846,1,"07/11/2020 11:18:01","BLIND",6688089,NA,"complete",NA,"5fa672849326cb28d173277d","computer","Desktop or Laptop","Windows 10","Firefox 82.0","1920x1080","1920x966","FeedbackOnly","AliceSportIntoFeedbackOnly","AliceSportIntoFeedbackOnly",2,"1",2,"Klaar4Sporten","advancementZone","continue_button",28040.3303030323,NA,NA,"",NA,"AliceFeedbackOnlyIntroVid"
"5",1604744325302,1,"07/11/2020 11:18:45","BLIND",6688089,NA,"complete",NA,"5fa672849326cb28d173277d","computer","Desktop or Laptop","Windows 10","Firefox 82.0","1920x1080","1920x966","FeedbackOnly","AliceSportIntoFeedbackOnly","AliceSportIntoFeedbackOnly",3,"1",1,"Text","advancementZone","continue_button",28040.3303030323,NA,NA,"",NA,"SportenFeedbackOnly"
"6",1604744332431,1,"07/11/2020 11:18:52","BLIND",6688089,NA,"complete",NA,"5fa672849326cb28d173277d","computer","Desktop or Laptop","Windows 10","Firefox 82.0","1920x1080","1920x966","FeedbackOnly","AliceSportIntoFeedbackOnly","AliceSportIntoFeedbackOnly",3,"1",2,"JoL1","Four","response_button_text",28040.3303030323,NA,NA,"2",1,"SportenFeedbackOnly"
"7",1604744354334,1,"07/11/2020 11:19:14","BLIND",6688089,NA,"complete",NA,"5fa672849326cb28d173277d","computer","Desktop or Laptop","Windows 10","Firefox 82.0","1920x1080","1920x966","FeedbackOnly","AliceSportIntoFeedbackOnly","AliceSportIntoFeedbackOnly",3,"1",3,"Feedback","Zone1","continue_button",28040.3303030323,NA,NA,"",NA,"SportenFeedbackOnly"
"8",1604744356758,1,"07/11/2020 11:19:16","BLIND",6688089,NA,"complete",NA,"5fa672849326cb28d173277d","computer","Desktop or Laptop","Windows 10","Firefox 82.0","1920x1080","1920x966","FeedbackOnly","AliceSportIntoFeedbackOnly","AliceSportIntoFeedbackOnly",3,"1",4,"JoL2","Three","response_button_text",28040.3303030323,NA,NA,"2",1,"SportenFeedbackOnly"
"9",1604744360774,1,"07/11/2020 11:19:20","BLIND",6688089,NA,"complete",NA,"5fa672849326cb28d173277d","computer","Desktop or Laptop","Windows 10","Firefox 82.0","1920x1080","1920x966","FeedbackOnly","AliceSportIntoFeedbackOnly","AliceSportIntoFeedbackOnly",3,"1",5,"InstructieToets","advancementZone","continue_button",28040.3303030323,NA,NA,"",NA,"SportenFeedbackOnly"
"1",1604134379156,1,"31/10/2020 09:52:59","BLIND",7448371,NA,"complete",NA,"5f9d25b0d0edb721b9f22844","computer","Desktop or Laptop","Windows 10","Chrome 86.0.4240.111","1536x864","1536x754","FeedbackOnly","AliceSportIntoFeedbackOnly","",NA,"BEGIN TASK",NA,"","","",NA,NA,NA,"",NA,""
"10",1604134583727,1,"31/10/2020 09:56:23","BLIND",7448371,NA,"complete",NA,"5f9d25b0d0edb721b9f22844","computer","Desktop or Laptop","Windows 10","Chrome 86.0.4240.111","1536x864","1536x754","FeedbackOnly","AliceSportIntoFeedbackOnly","AliceSportIntoFeedbackOnly",3,"1",6,"Test","buttonA","response_text_area",28040.3303030323,NA,NA,"ypW5JgSUz",NA,"SportenFeedbackOnly"
"11",1604134583729,1,"31/10/2020 09:56:23","BLIND",7448371,NA,"complete",NA,"5f9d25b0d0edb721b9f22844","computer","Desktop or Laptop","Windows 10","Chrome 86.0.4240.111","1536x864","1536x754","FeedbackOnly","AliceSportIntoFeedbackOnly","AliceSportIntoFeedbackOnly",3,"1",6,"Test","buttonB","continue_button",28040.3303030323,NA,NA,"",NA,"SportenFeedbackOnly"
"12",1604134585213,1,"31/10/2020 09:56:25","BLIND",7448371,NA,"complete",NA,"5f9d25b0d0edb721b9f22844","computer","Desktop or Laptop","Windows 10","Chrome 86.0.4240.111","1536x864","1536x754","FeedbackOnly","AliceSportIntoFeedbackOnly","AliceSportIntoFeedbackOnly",4,"1",1,"Screen 1","advancementZone","continue_button",28040.3303030323,NA,NA,"",NA,"ReadyForExperiment"
"13",1604134585216,1,"31/10/2020 09:56:25","BLIND",7448371,NA,"complete",NA,"5f9d25b0d0edb721b9f22844","computer","Desktop or Laptop","Windows 10","Chrome 86.0.4240.111","1536x864","1536x754","FeedbackOnly","AliceSportIntoFeedbackOnly","",NA,"END TASK",NA,"","","",206059,NA,NA,"",NA,""
"2",1604134382399,1,"31/10/2020 09:53:02","BLIND",7448371,NA,"complete",NA,"5f9d25b0d0edb721b9f22844","computer","Desktop or Laptop","Windows 10","Chrome 86.0.4240.111","1536x864","1536x754","FeedbackOnly","AliceSportIntoFeedbackOnly","AliceSportIntoFeedbackOnly",1,"1",1,"Screen 1","advancementZone","continue_button",28040.3303030323,NA,NA,"",NA,"IntroAlice"
"3",1604134488711,1,"31/10/2020 09:54:48","BLIND",7448371,NA,"complete",NA,"5f9d25b0d0edb721b9f22844","computer","Desktop or Laptop","Windows 10","Chrome 86.0.4240.111","1536x864","1536x754","FeedbackOnly","AliceSportIntoFeedbackOnly","AliceSportIntoFeedbackOnly",2,"1",1,"Screen 1","content","content_video",28040.3303030323,NA,NA,"",NA,"AliceFeedbackOnlyIntroVid"
"4",1604134491094,1,"31/10/2020 09:54:51","BLIND",7448371,NA,"complete",NA,"5f9d25b0d0edb721b9f22844","computer","Desktop or Laptop","Windows 10","Chrome 86.0.4240.111","1536x864","1536x754","FeedbackOnly","AliceSportIntoFeedbackOnly","AliceSportIntoFeedbackOnly",2,"1",2,"Klaar4Sporten","advancementZone","continue_button",28040.3303030323,NA,NA,"",NA,"AliceFeedbackOnlyIntroVid"
"5",1604134519981,1,"31/10/2020 09:55:19","BLIND",7448371,NA,"complete",NA,"5f9d25b0d0edb721b9f22844","computer","Desktop or Laptop","Windows 10","Chrome 86.0.4240.111","1536x864","1536x754","FeedbackOnly","AliceSportIntoFeedbackOnly","AliceSportIntoFeedbackOnly",3,"1",1,"Text","advancementZone","continue_button",28040.3303030323,NA,NA,"",NA,"SportenFeedbackOnly"
"6",1604134522838,1,"31/10/2020 09:55:22","BLIND",7448371,NA,"complete",NA,"5f9d25b0d0edb721b9f22844","computer","Desktop or Laptop","Windows 10","Chrome 86.0.4240.111","1536x864","1536x754","FeedbackOnly","AliceSportIntoFeedbackOnly","AliceSportIntoFeedbackOnly",3,"1",2,"JoL1","One","response_button_text",28040.3303030323,NA,NA,"2",1,"SportenFeedbackOnly"
"7",1604134542974,1,"31/10/2020 09:55:42","BLIND",7448371,NA,"complete",NA,"5f9d25b0d0edb721b9f22844","computer","Desktop or Laptop","Windows 10","Chrome 86.0.4240.111","1536x864","1536x754","FeedbackOnly","AliceSportIntoFeedbackOnly","AliceSportIntoFeedbackOnly",3,"1",3,"Feedback","Zone1","continue_button",28040.3303030323,NA,NA,"",NA,"SportenFeedbackOnly"
"8",1604134544373,1,"31/10/2020 09:55:44","BLIND",7448371,NA,"complete",NA,"5f9d25b0d0edb721b9f22844","computer","Desktop or Laptop","Windows 10","Chrome 86.0.4240.111","1536x864","1536x754","FeedbackOnly","AliceSportIntoFeedbackOnly","AliceSportIntoFeedbackOnly",3,"1",4,"JoL2","Two","response_button_text",28040.3303030323,NA,NA,"2",1,"SportenFeedbackOnly"
"9",1604134546213,1,"31/10/2020 09:55:46","BLIND",7448371,NA,"complete",NA,"5f9d25b0d0edb721b9f22844","computer","Desktop or Laptop","Windows 10","Chrome 86.0.4240.111","1536x864","1536x754","FeedbackOnly","AliceSportIntoFeedbackOnly","AliceSportIntoFeedbackOnly",3,"1",5,"InstructieToets","advancementZone","continue_button",28040.3303030323,NA,NA,"",NA,"SportenFeedbackOnly"
"1",1604168986778,1,"31/10/2020 19:29:46","BLIND",7889284,NA,"complete",NA,"5f9dac41267c43314e2769bd","computer","Desktop or Laptop","Windows 10","Chrome 86.0.4240.111","1920x1080","1920x941","FeedbackOnly","AliceSportIntoFeedbackOnly","",NA,"BEGIN TASK",NA,"","","",NA,NA,NA,"",NA,""
"10",1604169351514,1,"31/10/2020 19:35:51","BLIND",7889284,NA,"complete",NA,"5f9dac41267c43314e2769bd","computer","Desktop or Laptop","Windows 10","Chrome 86.0.4240.111","1920x1080","1920x941","FeedbackOnly","AliceSportIntoFeedbackOnly","AliceSportIntoFeedbackOnly",3,"1",6,"Test","buttonA","response_text_area",28040.3303030323,NA,NA,"E0EPrp",NA,"SportenFeedbackOnly"
"11",1604169351519,1,"31/10/2020 19:35:51","BLIND",7889284,NA,"complete",NA,"5f9dac41267c43314e2769bd","computer","Desktop or Laptop","Windows 10","Chrome 86.0.4240.111","1920x1080","1920x941","FeedbackOnly","AliceSportIntoFeedbackOnly","AliceSportIntoFeedbackOnly",3,"1",6,"Test","buttonB","continue_button",28040.3303030323,NA,NA,"",NA,"SportenFeedbackOnly"
"12",1604169353309,1,"31/10/2020 19:35:53","BLIND",7889284,NA,"complete",NA,"5f9dac41267c43314e2769bd","computer","Desktop or Laptop","Windows 10","Chrome 86.0.4240.111","1920x1080","1920x941","FeedbackOnly","AliceSportIntoFeedbackOnly","AliceSportIntoFeedbackOnly",4,"1",1,"Screen 1","advancementZone","continue_button",28040.3303030323,NA,NA,"",NA,"ReadyForExperiment"
"13",1604169353312,1,"31/10/2020 19:35:53","BLIND",7889284,NA,"complete",NA,"5f9dac41267c43314e2769bd","computer","Desktop or Laptop","Windows 10","Chrome 86.0.4240.111","1920x1080","1920x941","FeedbackOnly","AliceSportIntoFeedbackOnly","",NA,"END TASK",NA,"","","",366534,NA,NA,"",NA,""
"2",1604168994326,1,"31/10/2020 19:29:54","BLIND",7889284,NA,"complete",NA,"5f9dac41267c43314e2769bd","computer","Desktop or Laptop","Windows 10","Chrome 86.0.4240.111","1920x1080","1920x941","FeedbackOnly","AliceSportIntoFeedbackOnly","AliceSportIntoFeedbackOnly",1,"1",1,"Screen 1","advancementZone","continue_button",28040.3303030323,NA,NA,"",NA,"IntroAlice"
"3",1604169100626,1,"31/10/2020 19:31:40","BLIND",7889284,NA,"complete",NA,"5f9dac41267c43314e2769bd","computer","Desktop or Laptop","Windows 10","Chrome 86.0.4240.111","1920x1080","1920x941","FeedbackOnly","AliceSportIntoFeedbackOnly","AliceSportIntoFeedbackOnly",2,"1",1,"Screen 1","content","content_video",28040.3303030323,NA,NA,"",NA,"AliceFeedbackOnlyIntroVid"
"4",1604169103682,1,"31/10/2020 19:31:43","BLIND",7889284,NA,"complete",NA,"5f9dac41267c43314e2769bd","computer","Desktop or Laptop","Windows 10","Chrome 86.0.4240.111","1920x1080","1920x941","FeedbackOnly","AliceSportIntoFeedbackOnly","AliceSportIntoFeedbackOnly",2,"1",2,"Klaar4Sporten","advancementZone","continue_button",28040.3303030323,NA,NA,"",NA,"AliceFeedbackOnlyIntroVid"
"5",1604169150055,1,"31/10/2020 19:32:30","BLIND",7889284,NA,"complete",NA,"5f9dac41267c43314e2769bd","computer","Desktop or Laptop","Windows 10","Chrome 86.0.4240.111","1920x1080","1920x941","FeedbackOnly","AliceSportIntoFeedbackOnly","AliceSportIntoFeedbackOnly",3,"1",1,"Text","advancementZone","continue_button",28040.3303030323,NA,NA,"",NA,"SportenFeedbackOnly"
"6",1604169158130,1,"31/10/2020 19:32:38","BLIND",7889284,NA,"complete",NA,"5f9dac41267c43314e2769bd","computer","Desktop or Laptop","Windows 10","Chrome 86.0.4240.111","1920x1080","1920x941","FeedbackOnly","AliceSportIntoFeedbackOnly","AliceSportIntoFeedbackOnly",3,"1",2,"JoL1","Two","response_button_text",28040.3303030323,NA,NA,"2",1,"SportenFeedbackOnly"
"7",1604169195831,1,"31/10/2020 19:33:15","BLIND",7889284,NA,"complete",NA,"5f9dac41267c43314e2769bd","computer","Desktop or Laptop","Windows 10","Chrome 86.0.4240.111","1920x1080","1920x941","FeedbackOnly","AliceSportIntoFeedbackOnly","AliceSportIntoFeedbackOnly",3,"1",3,"Feedback","Zone1","continue_button",28040.3303030323,NA,NA,"",NA,"SportenFeedbackOnly"
"8",1604169199042,1,"31/10/2020 19:33:19","BLIND",7889284,NA,"complete",NA,"5f9dac41267c43314e2769bd","computer","Desktop or Laptop","Windows 10","Chrome 86.0.4240.111","1920x1080","1920x941","FeedbackOnly","AliceSportIntoFeedbackOnly","AliceSportIntoFeedbackOnly",3,"1",4,"JoL2","Three","response_button_text",28040.3303030323,NA,NA,"2",1,"SportenFeedbackOnly"
"9",1604169201858,1,"31/10/2020 19:33:21","BLIND",7889284,NA,"complete",NA,"5f9dac41267c43314e2769bd","computer","Desktop or Laptop","Windows 10","Chrome 86.0.4240.111","1920x1080","1920x941","FeedbackOnly","AliceSportIntoFeedbackOnly","AliceSportIntoFeedbackOnly",3,"1",5,"InstructieToets","advancementZone","continue_button",28040.3303030323,NA,NA,"",NA,"SportenFeedbackOnly"
"1",1604154786664,1,"31/10/2020 15:33:06","BLIND",8242221,NA,"complete",NA,"5f9d7573267c432abeef14a7","computer","Desktop or Laptop","Windows 10","Chrome 86.0.4240.75","1536x864","1536x760","FeedbackOnly","AliceSportIntoFeedbackOnly","",NA,"BEGIN TASK",NA,"","","",NA,NA,NA,"",NA,""
"10",1604154927193,1,"31/10/2020 15:35:27","BLIND",8242221,NA,"complete",NA,"5f9d7573267c432abeef14a7","computer","Desktop or Laptop","Windows 10","Chrome 86.0.4240.75","1536x864","1536x760","FeedbackOnly","AliceSportIntoFeedbackOnly","AliceSportIntoFeedbackOnly",3,"1",6,"Test","buttonA","response_text_area",28040.3303030323,NA,NA,"w14Fl",NA,"SportenFeedbackOnly"
"11",1604154927194,1,"31/10/2020 15:35:27","BLIND",8242221,NA,"complete",NA,"5f9d7573267c432abeef14a7","computer","Desktop or Laptop","Windows 10","Chrome 86.0.4240.75","1536x864","1536x760","FeedbackOnly","AliceSportIntoFeedbackOnly","AliceSportIntoFeedbackOnly",3,"1",6,"Test","buttonB","continue_button",28040.3303030323,NA,NA,"",NA,"SportenFeedbackOnly"
"12",1604154928658,1,"31/10/2020 15:35:28","BLIND",8242221,NA,"complete",NA,"5f9d7573267c432abeef14a7","computer","Desktop or Laptop","Windows 10","Chrome 86.0.4240.75","1536x864","1536x760","FeedbackOnly","AliceSportIntoFeedbackOnly","AliceSportIntoFeedbackOnly",4,"1",1,"Screen 1","advancementZone","continue_button",28040.3303030323,NA,NA,"",NA,"ReadyForExperiment"
"13",1604154928663,1,"31/10/2020 15:35:28","BLIND",8242221,NA,"complete",NA,"5f9d7573267c432abeef14a7","computer","Desktop or Laptop","Windows 10","Chrome 86.0.4240.75","1536x864","1536x760","FeedbackOnly","AliceSportIntoFeedbackOnly","",NA,"END TASK",NA,"","","",141999,NA,NA,"",NA,""
"2",1604154788063,1,"31/10/2020 15:33:08","BLIND",8242221,NA,"complete",NA,"5f9d7573267c432abeef14a7","computer","Desktop or Laptop","Windows 10","Chrome 86.0.4240.75","1536x864","1536x760","FeedbackOnly","AliceSportIntoFeedbackOnly","AliceSportIntoFeedbackOnly",1,"1",1,"Screen 1","advancementZone","continue_button",28040.3303030323,NA,NA,"",NA,"IntroAlice"
"3",1604154894348,1,"31/10/2020 15:34:54","BLIND",8242221,NA,"complete",NA,"5f9d7573267c432abeef14a7","computer","Desktop or Laptop","Windows 10","Chrome 86.0.4240.75","1536x864","1536x760","FeedbackOnly","AliceSportIntoFeedbackOnly","AliceSportIntoFeedbackOnly",2,"1",1,"Screen 1","content","content_video",28040.3303030323,NA,NA,"",NA,"AliceFeedbackOnlyIntroVid"
"4",1604154895811,1,"31/10/2020 15:34:55","BLIND",8242221,NA,"complete",NA,"5f9d7573267c432abeef14a7","computer","Desktop or Laptop","Windows 10","Chrome 86.0.4240.75","1536x864","1536x760","FeedbackOnly","AliceSportIntoFeedbackOnly","AliceSportIntoFeedbackOnly",2,"1",2,"Klaar4Sporten","advancementZone","continue_button",28040.3303030323,NA,NA,"",NA,"AliceFeedbackOnlyIntroVid"
"5",1604154897157,1,"31/10/2020 15:34:57","BLIND",8242221,NA,"complete",NA,"5f9d7573267c432abeef14a7","computer","Desktop or Laptop","Windows 10","Chrome 86.0.4240.75","1536x864","1536x760","FeedbackOnly","AliceSportIntoFeedbackOnly","AliceSportIntoFeedbackOnly",3,"1",1,"Text","advancementZone","continue_button",28040.3303030323,NA,NA,"",NA,"SportenFeedbackOnly"
"6",1604154898214,1,"31/10/2020 15:34:58","BLIND",8242221,NA,"complete",NA,"5f9d7573267c432abeef14a7","computer","Desktop or Laptop","Windows 10","Chrome 86.0.4240.75","1536x864","1536x760","FeedbackOnly","AliceSportIntoFeedbackOnly","AliceSportIntoFeedbackOnly",3,"1",2,"JoL1","Two","response_button_text",28040.3303030323,NA,NA,"2",1,"SportenFeedbackOnly"
"7",1604154899396,1,"31/10/2020 15:34:59","BLIND",8242221,NA,"complete",NA,"5f9d7573267c432abeef14a7","computer","Desktop or Laptop","Windows 10","Chrome 86.0.4240.75","1536x864","1536x760","FeedbackOnly","AliceSportIntoFeedbackOnly","AliceSportIntoFeedbackOnly",3,"1",3,"Feedback","Zone1","continue_button",28040.3303030323,NA,NA,"",NA,"SportenFeedbackOnly"
"8",1604154900162,1,"31/10/2020 15:35:00","BLIND",8242221,NA,"complete",NA,"5f9d7573267c432abeef14a7","computer","Desktop or Laptop","Windows 10","Chrome 86.0.4240.75","1536x864","1536x760","FeedbackOnly","AliceSportIntoFeedbackOnly","AliceSportIntoFeedbackOnly",3,"1",4,"JoL2","Two","response_button_text",28040.3303030323,NA,NA,"2",1,"SportenFeedbackOnly"
"9",1604154900899,1,"31/10/2020 15:35:00","BLIND",8242221,NA,"complete",NA,"5f9d7573267c432abeef14a7","computer","Desktop or Laptop","Windows 10","Chrome 86.0.4240.75","1536x864","1536x760","FeedbackOnly","AliceSportIntoFeedbackOnly","AliceSportIntoFeedbackOnly",3,"1",5,"InstructieToets","advancementZone","continue_button",28040.3303030323,NA,NA,"",NA,"SportenFeedbackOnly"
"1",1604590535713,1,"05/11/2020 16:35:35","BLIND",8254165,NA,"complete",NA,"5fa41b6ac0429701b1c4be93","computer","Desktop or Laptop","Windows 10","Chrome 86.0.4240.111","1366x768","1366x657","FeedbackOnly","AliceSportIntoFeedbackOnly","",NA,"BEGIN TASK",NA,"","","",NA,NA,NA,"",NA,""
"10",1604590808149,1,"05/11/2020 16:40:08","BLIND",8254165,NA,"complete",NA,"5fa41b6ac0429701b1c4be93","computer","Desktop or Laptop","Windows 10","Chrome 86.0.4240.111","1366x768","1366x657","FeedbackOnly","AliceSportIntoFeedbackOnly","AliceSportIntoFeedbackOnly",3,"1",6,"Test","buttonA","response_text_area",28040.3303030323,NA,NA,"pdPGj",NA,"SportenFeedbackOnly"
"11",1604590808151,1,"05/11/2020 16:40:08","BLIND",8254165,NA,"complete",NA,"5fa41b6ac0429701b1c4be93","computer","Desktop or Laptop","Windows 10","Chrome 86.0.4240.111","1366x768","1366x657","FeedbackOnly","AliceSportIntoFeedbackOnly","AliceSportIntoFeedbackOnly",3,"1",6,"Test","buttonB","continue_button",28040.3303030323,NA,NA,"",NA,"SportenFeedbackOnly"
"12",1604590809702,1,"05/11/2020 16:40:09","BLIND",8254165,NA,"complete",NA,"5fa41b6ac0429701b1c4be93","computer","Desktop or Laptop","Windows 10","Chrome 86.0.4240.111","1366x768","1366x657","FeedbackOnly","AliceSportIntoFeedbackOnly","AliceSportIntoFeedbackOnly",4,"1",1,"Screen 1","advancementZone","continue_button",28040.3303030323,NA,NA,"",NA,"ReadyForExperiment"
"13",1604590809704,1,"05/11/2020 16:40:09","BLIND",8254165,NA,"complete",NA,"5fa41b6ac0429701b1c4be93","computer","Desktop or Laptop","Windows 10","Chrome 86.0.4240.111","1366x768","1366x657","FeedbackOnly","AliceSportIntoFeedbackOnly","",NA,"END TASK",NA,"","","",273991,NA,NA,"",NA,""
"2",1604590539297,1,"05/11/2020 16:35:39","BLIND",8254165,NA,"complete",NA,"5fa41b6ac0429701b1c4be93","computer","Desktop or Laptop","Windows 10","Chrome 86.0.4240.111","1366x768","1366x657","FeedbackOnly","AliceSportIntoFeedbackOnly","AliceSportIntoFeedbackOnly",1,"1",1,"Screen 1","advancementZone","continue_button",28040.3303030323,NA,NA,"",NA,"IntroAlice"
"3",1604590647353,1,"05/11/2020 16:37:27","BLIND",8254165,NA,"complete",NA,"5fa41b6ac0429701b1c4be93","computer","Desktop or Laptop","Windows 10","Chrome 86.0.4240.111","1366x768","1366x657","FeedbackOnly","AliceSportIntoFeedbackOnly","AliceSportIntoFeedbackOnly",2,"1",1,"Screen 1","content","content_video",28040.3303030323,NA,NA,"",NA,"AliceFeedbackOnlyIntroVid"
"4",1604590661725,1,"05/11/2020 16:37:41","BLIND",8254165,NA,"complete",NA,"5fa41b6ac0429701b1c4be93","computer","Desktop or Laptop","Windows 10","Chrome 86.0.4240.111","1366x768","1366x657","FeedbackOnly","AliceSportIntoFeedbackOnly","AliceSportIntoFeedbackOnly",2,"1",2,"Klaar4Sporten","advancementZone","continue_button",28040.3303030323,NA,NA,"",NA,"AliceFeedbackOnlyIntroVid"
"5",1604590699077,1,"05/11/2020 16:38:19","BLIND",8254165,NA,"complete",NA,"5fa41b6ac0429701b1c4be93","computer","Desktop or Laptop","Windows 10","Chrome 86.0.4240.111","1366x768","1366x657","FeedbackOnly","AliceSportIntoFeedbackOnly","AliceSportIntoFeedbackOnly",3,"1",1,"Text","advancementZone","continue_button",28040.3303030323,NA,NA,"",NA,"SportenFeedbackOnly"
"6",1604590703465,1,"05/11/2020 16:38:23","BLIND",8254165,NA,"complete",NA,"5fa41b6ac0429701b1c4be93","computer","Desktop or Laptop","Windows 10","Chrome 86.0.4240.111","1366x768","1366x657","FeedbackOnly","AliceSportIntoFeedbackOnly","AliceSportIntoFeedbackOnly",3,"1",2,"JoL1","Four","response_button_text",28040.3303030323,NA,NA,"2",1,"SportenFeedbackOnly"
"7",1604590717181,1,"05/11/2020 16:38:37","BLIND",8254165,NA,"complete",NA,"5fa41b6ac0429701b1c4be93","computer","Desktop or Laptop","Windows 10","Chrome 86.0.4240.111","1366x768","1366x657","FeedbackOnly","AliceSportIntoFeedbackOnly","AliceSportIntoFeedbackOnly",3,"1",3,"Feedback","Zone1","continue_button",28040.3303030323,NA,NA,"",NA,"SportenFeedbackOnly"
"8",1604590726720,1,"05/11/2020 16:38:46","BLIND",8254165,NA,"complete",NA,"5fa41b6ac0429701b1c4be93","computer","Desktop or Laptop","Windows 10","Chrome 86.0.4240.111","1366x768","1366x657","FeedbackOnly","AliceSportIntoFeedbackOnly","AliceSportIntoFeedbackOnly",3,"1",4,"JoL2","Two","response_button_text",28040.3303030323,NA,NA,"2",1,"SportenFeedbackOnly"
"9",1604590731272,1,"05/11/2020 16:38:51","BLIND",8254165,NA,"complete",NA,"5fa41b6ac0429701b1c4be93","computer","Desktop or Laptop","Windows 10","Chrome 86.0.4240.111","1366x768","1366x657","FeedbackOnly","AliceSportIntoFeedbackOnly","AliceSportIntoFeedbackOnly",3,"1",5,"InstructieToets","advancementZone","continue_button",28040.3303030323,NA,NA,"",NA,"SportenFeedbackOnly"
"1",1604087518489,1,"30/10/2020 20:51:58","BLIND",8715908,NA,"complete",NA,"5f9c6ead8882e411f714801a","computer","Desktop or Laptop","Windows 10","Chrome 86.0.4240.111","1536x864","1536x754","FeedbackOnly","AliceSportIntoFeedbackOnly","",NA,"BEGIN TASK",NA,"","","",NA,NA,NA,"",NA,""
"10",1604087843134,1,"30/10/2020 20:57:23","BLIND",8715908,NA,"complete",NA,"5f9c6ead8882e411f714801a","computer","Desktop or Laptop","Windows 10","Chrome 86.0.4240.111","1536x864","1536x754","FeedbackOnly","AliceSportIntoFeedbackOnly","AliceSportIntoFeedbackOnly",3,"1",6,"Test","buttonA","response_text_area",28040.3303030323,NA,NA,"2zQ",NA,"SportenFeedbackOnly"
"11",1604087843138,1,"30/10/2020 20:57:23","BLIND",8715908,NA,"complete",NA,"5f9c6ead8882e411f714801a","computer","Desktop or Laptop","Windows 10","Chrome 86.0.4240.111","1536x864","1536x754","FeedbackOnly","AliceSportIntoFeedbackOnly","AliceSportIntoFeedbackOnly",3,"1",6,"Test","buttonB","continue_button",28040.3303030323,NA,NA,"",NA,"SportenFeedbackOnly"
"12",1604087846294,1,"30/10/2020 20:57:26","BLIND",8715908,NA,"complete",NA,"5f9c6ead8882e411f714801a","computer","Desktop or Laptop","Windows 10","Chrome 86.0.4240.111","1536x864","1536x754","FeedbackOnly","AliceSportIntoFeedbackOnly","AliceSportIntoFeedbackOnly",4,"1",1,"Screen 1","advancementZone","continue_button",28040.3303030323,NA,NA,"",NA,"ReadyForExperiment"
"13",1604087846296,1,"30/10/2020 20:57:26","BLIND",8715908,NA,"complete",NA,"5f9c6ead8882e411f714801a","computer","Desktop or Laptop","Windows 10","Chrome 86.0.4240.111","1536x864","1536x754","FeedbackOnly","AliceSportIntoFeedbackOnly","",NA,"END TASK",NA,"","","",327807,NA,NA,"",NA,""
"2",1604087523511,1,"30/10/2020 20:52:03","BLIND",8715908,NA,"complete",NA,"5f9c6ead8882e411f714801a","computer","Desktop or Laptop","Windows 10","Chrome 86.0.4240.111","1536x864","1536x754","FeedbackOnly","AliceSportIntoFeedbackOnly","AliceSportIntoFeedbackOnly",1,"1",1,"Screen 1","advancementZone","continue_button",28040.3303030323,NA,NA,"",NA,"IntroAlice"
"3",1604087629792,1,"30/10/2020 20:53:49","BLIND",8715908,NA,"complete",NA,"5f9c6ead8882e411f714801a","computer","Desktop or Laptop","Windows 10","Chrome 86.0.4240.111","1536x864","1536x754","FeedbackOnly","AliceSportIntoFeedbackOnly","AliceSportIntoFeedbackOnly",2,"1",1,"Screen 1","content","content_video",28040.3303030323,NA,NA,"",NA,"AliceFeedbackOnlyIntroVid"
"4",1604087631411,1,"30/10/2020 20:53:51","BLIND",8715908,NA,"complete",NA,"5f9c6ead8882e411f714801a","computer","Desktop or Laptop","Windows 10","Chrome 86.0.4240.111","1536x864","1536x754","FeedbackOnly","AliceSportIntoFeedbackOnly","AliceSportIntoFeedbackOnly",2,"1",2,"Klaar4Sporten","advancementZone","continue_button",28040.3303030323,NA,NA,"",NA,"AliceFeedbackOnlyIntroVid"
"5",1604087664769,1,"30/10/2020 20:54:24","BLIND",8715908,NA,"complete",NA,"5f9c6ead8882e411f714801a","computer","Desktop or Laptop","Windows 10","Chrome 86.0.4240.111","1536x864","1536x754","FeedbackOnly","AliceSportIntoFeedbackOnly","AliceSportIntoFeedbackOnly",3,"1",1,"Text","advancementZone","continue_button",28040.3303030323,NA,NA,"",NA,"SportenFeedbackOnly"
"6",1604087666724,1,"30/10/2020 20:54:26","BLIND",8715908,NA,"complete",NA,"5f9c6ead8882e411f714801a","computer","Desktop or Laptop","Windows 10","Chrome 86.0.4240.111","1536x864","1536x754","FeedbackOnly","AliceSportIntoFeedbackOnly","AliceSportIntoFeedbackOnly",3,"1",2,"JoL1","Two","response_button_text",28040.3303030323,NA,NA,"2",1,"SportenFeedbackOnly"
"7",1604087709026,1,"30/10/2020 20:55:09","BLIND",8715908,NA,"complete",NA,"5f9c6ead8882e411f714801a","computer","Desktop or Laptop","Windows 10","Chrome 86.0.4240.111","1536x864","1536x754","FeedbackOnly","AliceSportIntoFeedbackOnly","AliceSportIntoFeedbackOnly",3,"1",3,"Feedback","Zone1","continue_button",28040.3303030323,NA,NA,"",NA,"SportenFeedbackOnly"
"8",1604087711416,1,"30/10/2020 20:55:11","BLIND",8715908,NA,"complete",NA,"5f9c6ead8882e411f714801a","computer","Desktop or Laptop","Windows 10","Chrome 86.0.4240.111","1536x864","1536x754","FeedbackOnly","AliceSportIntoFeedbackOnly","AliceSportIntoFeedbackOnly",3,"1",4,"JoL2","Four","response_button_text",28040.3303030323,NA,NA,"2",1,"SportenFeedbackOnly"
"9",1604087716540,1,"30/10/2020 20:55:16","BLIND",8715908,NA,"complete",NA,"5f9c6ead8882e411f714801a","computer","Desktop or Laptop","Windows 10","Chrome 86.0.4240.111","1536x864","1536x754","FeedbackOnly","AliceSportIntoFeedbackOnly","AliceSportIntoFeedbackOnly",3,"1",5,"InstructieToets","advancementZone","continue_button",28040.3303030323,NA,NA,"",NA,"SportenFeedbackOnly"
"1",1604093670058,1,"30/10/2020 22:34:30","BLIND",8935679,NA,"complete",NA,"5f9c862d885b11152708a0ab","computer","Desktop or Laptop","Windows 10","Firefox 82.0","1920x1080","1920x966","FeedbackOnly","AliceSportIntoFeedbackOnly","",NA,"BEGIN TASK",NA,"","","",NA,NA,NA,"",NA,""
"10",1604094100133,1,"30/10/2020 22:41:40","BLIND",8935679,NA,"complete",NA,"5f9c862d885b11152708a0ab","computer","Desktop or Laptop","Windows 10","Firefox 82.0","1920x1080","1920x966","FeedbackOnly","AliceSportIntoFeedbackOnly","AliceSportIntoFeedbackOnly",3,"1",6,"Test","buttonA","response_text_area",28040.3303030323,NA,NA,"fbWam",NA,"SportenFeedbackOnly"
"11",1604094100134,1,"30/10/2020 22:41:40","BLIND",8935679,NA,"complete",NA,"5f9c862d885b11152708a0ab","computer","Desktop or Laptop","Windows 10","Firefox 82.0","1920x1080","1920x966","FeedbackOnly","AliceSportIntoFeedbackOnly","AliceSportIntoFeedbackOnly",3,"1",6,"Test","buttonB","continue_button",28040.3303030323,NA,NA,"",NA,"SportenFeedbackOnly"
"12",1604094102548,1,"30/10/2020 22:41:42","BLIND",8935679,NA,"complete",NA,"5f9c862d885b11152708a0ab","computer","Desktop or Laptop","Windows 10","Firefox 82.0","1920x1080","1920x966","FeedbackOnly","AliceSportIntoFeedbackOnly","AliceSportIntoFeedbackOnly",4,"1",1,"Screen 1","advancementZone","continue_button",28040.3303030323,NA,NA,"",NA,"ReadyForExperiment"
"13",1604094102550,1,"30/10/2020 22:41:42","BLIND",8935679,NA,"complete",NA,"5f9c862d885b11152708a0ab","computer","Desktop or Laptop","Windows 10","Firefox 82.0","1920x1080","1920x966","FeedbackOnly","AliceSportIntoFeedbackOnly","",NA,"END TASK",NA,"","","",432492,NA,NA,"",NA,""
"2",1604093681600,1,"30/10/2020 22:34:41","BLIND",8935679,NA,"complete",NA,"5f9c862d885b11152708a0ab","computer","Desktop or Laptop","Windows 10","Firefox 82.0","1920x1080","1920x966","FeedbackOnly","AliceSportIntoFeedbackOnly","AliceSportIntoFeedbackOnly",1,"1",1,"Screen 1","advancementZone","continue_button",28040.3303030323,NA,NA,"",NA,"IntroAlice"
"3",1604093787982,1,"30/10/2020 22:36:27","BLIND",8935679,NA,"complete",NA,"5f9c862d885b11152708a0ab","computer","Desktop or Laptop","Windows 10","Firefox 82.0","1920x1080","1920x966","FeedbackOnly","AliceSportIntoFeedbackOnly","AliceSportIntoFeedbackOnly",2,"1",1,"Screen 1","content","content_video",28040.3303030323,NA,NA,"",NA,"AliceFeedbackOnlyIntroVid"
"4",1604093793543,1,"30/10/2020 22:36:33","BLIND",8935679,NA,"complete",NA,"5f9c862d885b11152708a0ab","computer","Desktop or Laptop","Windows 10","Firefox 82.0","1920x1080","1920x966","FeedbackOnly","AliceSportIntoFeedbackOnly","AliceSportIntoFeedbackOnly",2,"1",2,"Klaar4Sporten","advancementZone","continue_button",28040.3303030323,NA,NA,"",NA,"AliceFeedbackOnlyIntroVid"
"5",1604093839197,1,"30/10/2020 22:37:19","BLIND",8935679,NA,"complete",NA,"5f9c862d885b11152708a0ab","computer","Desktop or Laptop","Windows 10","Firefox 82.0","1920x1080","1920x966","FeedbackOnly","AliceSportIntoFeedbackOnly","AliceSportIntoFeedbackOnly",3,"1",1,"Text","advancementZone","continue_button",28040.3303030323,NA,NA,"",NA,"SportenFeedbackOnly"
"6",1604093859311,1,"30/10/2020 22:37:39","BLIND",8935679,NA,"complete",NA,"5f9c862d885b11152708a0ab","computer","Desktop or Laptop","Windows 10","Firefox 82.0","1920x1080","1920x966","FeedbackOnly","AliceSportIntoFeedbackOnly","AliceSportIntoFeedbackOnly",3,"1",2,"JoL1","Three","response_button_text",28040.3303030323,NA,NA,"2",1,"SportenFeedbackOnly"
"7",1604093884796,1,"30/10/2020 22:38:04","BLIND",8935679,NA,"complete",NA,"5f9c862d885b11152708a0ab","computer","Desktop or Laptop","Windows 10","Firefox 82.0","1920x1080","1920x966","FeedbackOnly","AliceSportIntoFeedbackOnly","AliceSportIntoFeedbackOnly",3,"1",3,"Feedback","Zone1","continue_button",28040.3303030323,NA,NA,"",NA,"SportenFeedbackOnly"
"8",1604093888022,1,"30/10/2020 22:38:08","BLIND",8935679,NA,"complete",NA,"5f9c862d885b11152708a0ab","computer","Desktop or Laptop","Windows 10","Firefox 82.0","1920x1080","1920x966","FeedbackOnly","AliceSportIntoFeedbackOnly","AliceSportIntoFeedbackOnly",3,"1",4,"JoL2","Three","response_button_text",28040.3303030323,NA,NA,"2",1,"SportenFeedbackOnly"
"9",1604093896206,1,"30/10/2020 22:38:16","BLIND",8935679,NA,"complete",NA,"5f9c862d885b11152708a0ab","computer","Desktop or Laptop","Windows 10","Firefox 82.0","1920x1080","1920x966","FeedbackOnly","AliceSportIntoFeedbackOnly","AliceSportIntoFeedbackOnly",3,"1",5,"InstructieToets","advancementZone","continue_button",28040.3303030323,NA,NA,"",NA,"SportenFeedbackOnly"
"1",1604178440323,1,"31/10/2020 22:07:20","BLIND",8967355,NA,"complete",NA,"5f9dd0deadab8c360712e94f","computer","Desktop or Laptop","Mac OS 10.15","Firefox 82.0","1920x1080","1920x903","FeedbackOnly","AliceSportIntoFeedbackOnly","",NA,"BEGIN TASK",NA,"","","",NA,NA,NA,"",NA,""
"10",1604178676523,1,"31/10/2020 22:11:16","BLIND",8967355,NA,"complete",NA,"5f9dd0deadab8c360712e94f","computer","Desktop or Laptop","Mac OS 10.15","Firefox 82.0","1920x1080","1920x903","FeedbackOnly","AliceSportIntoFeedbackOnly","AliceSportIntoFeedbackOnly",3,"1",6,"Test","buttonA","response_text_area",28040.3303030323,NA,NA,"g0cd9W",NA,"SportenFeedbackOnly"
"11",1604178676524,1,"31/10/2020 22:11:16","BLIND",8967355,NA,"complete",NA,"5f9dd0deadab8c360712e94f","computer","Desktop or Laptop","Mac OS 10.15","Firefox 82.0","1920x1080","1920x903","FeedbackOnly","AliceSportIntoFeedbackOnly","AliceSportIntoFeedbackOnly",3,"1",6,"Test","buttonB","continue_button",28040.3303030323,NA,NA,"",NA,"SportenFeedbackOnly"
"12",1604178678174,1,"31/10/2020 22:11:18","BLIND",8967355,NA,"complete",NA,"5f9dd0deadab8c360712e94f","computer","Desktop or Laptop","Mac OS 10.15","Firefox 82.0","1920x1080","1920x903","FeedbackOnly","AliceSportIntoFeedbackOnly","AliceSportIntoFeedbackOnly",4,"1",1,"Screen 1","advancementZone","continue_button",28040.3303030323,NA,NA,"",NA,"ReadyForExperiment"
"13",1604178678177,1,"31/10/2020 22:11:18","BLIND",8967355,NA,"complete",NA,"5f9dd0deadab8c360712e94f","computer","Desktop or Laptop","Mac OS 10.15","Firefox 82.0","1920x1080","1920x903","FeedbackOnly","AliceSportIntoFeedbackOnly","",NA,"END TASK",NA,"","","",237854,NA,NA,"",NA,""
"2",1604178447604,1,"31/10/2020 22:07:27","BLIND",8967355,NA,"complete",NA,"5f9dd0deadab8c360712e94f","computer","Desktop or Laptop","Mac OS 10.15","Firefox 82.0","1920x1080","1920x903","FeedbackOnly","AliceSportIntoFeedbackOnly","AliceSportIntoFeedbackOnly",1,"1",1,"Screen 1","advancementZone","continue_button",28040.3303030323,NA,NA,"",NA,"IntroAlice"
"3",1604178553933,1,"31/10/2020 22:09:13","BLIND",8967355,NA,"complete",NA,"5f9dd0deadab8c360712e94f","computer","Desktop or Laptop","Mac OS 10.15","Firefox 82.0","1920x1080","1920x903","FeedbackOnly","AliceSportIntoFeedbackOnly","AliceSportIntoFeedbackOnly",2,"1",1,"Screen 1","content","content_video",28040.3303030323,NA,NA,"",NA,"AliceFeedbackOnlyIntroVid"
"4",1604178557370,1,"31/10/2020 22:09:17","BLIND",8967355,NA,"complete",NA,"5f9dd0deadab8c360712e94f","computer","Desktop or Laptop","Mac OS 10.15","Firefox 82.0","1920x1080","1920x903","FeedbackOnly","AliceSportIntoFeedbackOnly","AliceSportIntoFeedbackOnly",2,"1",2,"Klaar4Sporten","advancementZone","continue_button",28040.3303030323,NA,NA,"",NA,"AliceFeedbackOnlyIntroVid"
"5",1604178586947,1,"31/10/2020 22:09:46","BLIND",8967355,NA,"complete",NA,"5f9dd0deadab8c360712e94f","computer","Desktop or Laptop","Mac OS 10.15","Firefox 82.0","1920x1080","1920x903","FeedbackOnly","AliceSportIntoFeedbackOnly","AliceSportIntoFeedbackOnly",3,"1",1,"Text","advancementZone","continue_button",28040.3303030323,NA,NA,"",NA,"SportenFeedbackOnly"
"6",1604178592731,1,"31/10/2020 22:09:52","BLIND",8967355,NA,"complete",NA,"5f9dd0deadab8c360712e94f","computer","Desktop or Laptop","Mac OS 10.15","Firefox 82.0","1920x1080","1920x903","FeedbackOnly","AliceSportIntoFeedbackOnly","AliceSportIntoFeedbackOnly",3,"1",2,"JoL1","Three","response_button_text",28040.3303030323,NA,NA,"2",1,"SportenFeedbackOnly"
"7",1604178607906,1,"31/10/2020 22:10:07","BLIND",8967355,NA,"complete",NA,"5f9dd0deadab8c360712e94f","computer","Desktop or Laptop","Mac OS 10.15","Firefox 82.0","1920x1080","1920x903","FeedbackOnly","AliceSportIntoFeedbackOnly","AliceSportIntoFeedbackOnly",3,"1",3,"Feedback","Zone1","continue_button",28040.3303030323,NA,NA,"",NA,"SportenFeedbackOnly"
"8",1604178610797,1,"31/10/2020 22:10:10","BLIND",8967355,NA,"complete",NA,"5f9dd0deadab8c360712e94f","computer","Desktop or Laptop","Mac OS 10.15","Firefox 82.0","1920x1080","1920x903","FeedbackOnly","AliceSportIntoFeedbackOnly","AliceSportIntoFeedbackOnly",3,"1",4,"JoL2","Three","response_button_text",28040.3303030323,NA,NA,"2",1,"SportenFeedbackOnly"
"9",1604178613430,1,"31/10/2020 22:10:13","BLIND",8967355,NA,"complete",NA,"5f9dd0deadab8c360712e94f","computer","Desktop or Laptop","Mac OS 10.15","Firefox 82.0","1920x1080","1920x903","FeedbackOnly","AliceSportIntoFeedbackOnly","AliceSportIntoFeedbackOnly",3,"1",5,"InstructieToets","advancementZone","continue_button",28040.3303030323,NA,NA,"",NA,"SportenFeedbackOnly"
"END OF FILE",NA,NA,"","",NA,NA,"",NA,"","","","","","","","","","",NA,"",NA,"","","",28040.3303030323,NA,NA,"",NA,""
"END OF FILE",NA,NA,"","",NA,NA,"",NA,"","","","","","","","","","",NA,"",NA,"","","",NA,NA,NA,"",NA,""
