"Event_Index","Local_Timestamp","Local_Timezone","Local_Date","Participant_Public_ID","Participant_Private_ID","Participant_Starting_Group","Participant_Status","Participant_Completion_Code","Participant_External_Session_ID","Participant_Device_Type","Participant_Device","Participant_OS","Participant_Browser","Participant_Monitor_Size","Participant_Viewport_Size","randomiser_81rl","Spreadsheet","Spreadsheet_Name","Spreadsheet_Row","Trial_Number","Screen_Number","Screen_Name","Zone_Name","Zone_Type","Reaction_Time","Reaction_Onset","Response_Type","Response","Attempt","display","Diagram_Box_Require_Response"
"1",1601716701705,2,"03/10/2020 11:18:21","BLIND",1951490,NA,"complete",NA,"5f7840fc881adf3ba90fe47e","computer","Desktop or Laptop","Windows 10","Chrome 85.0.4183.121","1920x1080","1920x969","DiagramNoFeedback","DiagramNoFeedback","",NA,"BEGIN TASK",NA,"","","",NA,NA,NA,"",NA,"",NA
"10",1601716906124,2,"03/10/2020 11:21:46","BLIND",1951490,NA,"complete",NA,"5f7840fc881adf3ba90fe47e","computer","Desktop or Laptop","Windows 10","Chrome 85.0.4183.121","1920x1080","1920x969","DiagramNoFeedback","DiagramNoFeedback","DiagramNoFeedback",1,"1",5,"JoL2","Two","response_button_text",138278.52,NA,NA,"1",1,"SportenDiagramNoFeedback",NA
"11",1601716907599,2,"03/10/2020 11:21:47","BLIND",1951490,NA,"complete",NA,"5f7840fc881adf3ba90fe47e","computer","Desktop or Laptop","Windows 10","Chrome 85.0.4183.121","1920x1080","1920x969","DiagramNoFeedback","DiagramNoFeedback","DiagramNoFeedback",1,"1",6,"InstructieToets","advancementZone","continue_button",138278.52,NA,NA,"",NA,"SportenDiagramNoFeedback",NA
"12",1601716994385,2,"03/10/2020 11:23:14","BLIND",1951490,NA,"complete",NA,"5f7840fc881adf3ba90fe47e","computer","Desktop or Laptop","Windows 10","Chrome 85.0.4183.121","1920x1080","1920x969","DiagramNoFeedback","DiagramNoFeedback","DiagramNoFeedback",1,"1",7,"Test","buttonA","response_text_area",138278.52,NA,NA,"g3CjXX",NA,"SportenDiagramNoFeedback",NA
"13",1601716994390,2,"03/10/2020 11:23:14","BLIND",1951490,NA,"complete",NA,"5f7840fc881adf3ba90fe47e","computer","Desktop or Laptop","Windows 10","Chrome 85.0.4183.121","1920x1080","1920x969","DiagramNoFeedback","DiagramNoFeedback","DiagramNoFeedback",1,"1",7,"Test","buttonB","continue_button",138278.52,NA,NA,"",NA,"SportenDiagramNoFeedback",NA
"14",1601716996052,2,"03/10/2020 11:23:16","BLIND",1951490,NA,"complete",NA,"5f7840fc881adf3ba90fe47e","computer","Desktop or Laptop","Windows 10","Chrome 85.0.4183.121","1920x1080","1920x969","DiagramNoFeedback","DiagramNoFeedback","DiagramNoFeedback",1,"1",8,"Klaar4Experiment","advancementZone","continue_button",138278.52,NA,NA,"",NA,"SportenDiagramNoFeedback",NA
"15",1601717011672,2,"03/10/2020 11:23:31","BLIND",1951490,NA,"complete",NA,"5f7840fc881adf3ba90fe47e","computer","Desktop or Laptop","Windows 10","Chrome 85.0.4183.121","1920x1080","1920x969","DiagramNoFeedback","DiagramNoFeedback","DiagramNoFeedback",10,"1",1,"Text","advancementZone","continue_button",138278.52,NA,NA,"",NA,"MuziekDiagramNoFeedback",NA
"16",1601717044473,2,"03/10/2020 11:24:04","BLIND",1951490,NA,"complete",NA,"5f7840fc881adf3ba90fe47e","computer","Desktop or Laptop","Windows 10","Chrome 85.0.4183.121","1920x1080","1920x969","DiagramNoFeedback","DiagramNoFeedback","DiagramNoFeedback",10,"1",2,"JoL1","Three","response_button_text",138278.52,NA,NA,"1",1,"MuziekDiagramNoFeedback",NA
"17",1601717163837,2,"03/10/2020 11:26:03","BLIND",1951490,NA,"complete",NA,"5f7840fc881adf3ba90fe47e","computer","Desktop or Laptop","Windows 10","Chrome 85.0.4183.121","1920x1080","1920x969","DiagramNoFeedback","DiagramNoFeedback","DiagramNoFeedback",10,"1",3,"Diagram","DiagBox1","response_text_area",138278.52,NA,NA,"fAKK",NA,"MuziekDiagramNoFeedback",NA
"18",1601717163839,2,"03/10/2020 11:26:03","BLIND",1951490,NA,"complete",NA,"5f7840fc881adf3ba90fe47e","computer","Desktop or Laptop","Windows 10","Chrome 85.0.4183.121","1920x1080","1920x969","DiagramNoFeedback","DiagramNoFeedback","DiagramNoFeedback",10,"1",3,"Diagram","DiagBox2","response_text_area",138278.52,NA,NA,"G9Fl",NA,"MuziekDiagramNoFeedback",NA
"19",1601717163839,2,"03/10/2020 11:26:03","BLIND",1951490,NA,"complete",NA,"5f7840fc881adf3ba90fe47e","computer","Desktop or Laptop","Windows 10","Chrome 85.0.4183.121","1920x1080","1920x969","DiagramNoFeedback","DiagramNoFeedback","DiagramNoFeedback",10,"1",3,"Diagram","DiagBox3","response_text_area",138278.52,NA,NA,"fdt1A",NA,"MuziekDiagramNoFeedback",NA
"2",1601716754077,2,"03/10/2020 11:19:14","BLIND",1951490,NA,"complete",NA,"5f7840fc881adf3ba90fe47e","computer","Desktop or Laptop","Windows 10","Chrome 85.0.4183.121","1920x1080","1920x969","DiagramNoFeedback","DiagramNoFeedback","DiagramNoFeedback",1,"1",1,"Text","advancementZone","continue_button",138278.52,NA,NA,"",NA,"SportenDiagramNoFeedback",NA
"20",1601717163839,2,"03/10/2020 11:26:03","BLIND",1951490,NA,"complete",NA,"5f7840fc881adf3ba90fe47e","computer","Desktop or Laptop","Windows 10","Chrome 85.0.4183.121","1920x1080","1920x969","DiagramNoFeedback","DiagramNoFeedback","DiagramNoFeedback",10,"1",3,"Diagram","DiagBox4","response_text_area",138278.52,NA,NA,"KaF7Zy2K6",NA,"MuziekDiagramNoFeedback",NA
"21",1601717163839,2,"03/10/2020 11:26:03","BLIND",1951490,NA,"complete",NA,"5f7840fc881adf3ba90fe47e","computer","Desktop or Laptop","Windows 10","Chrome 85.0.4183.121","1920x1080","1920x969","DiagramNoFeedback","DiagramNoFeedback","DiagramNoFeedback",10,"1",3,"Diagram","Zone1","continue_button",138278.52,NA,NA,"",NA,"MuziekDiagramNoFeedback",NA
"22",1601717167200,2,"03/10/2020 11:26:07","BLIND",1951490,NA,"complete",NA,"5f7840fc881adf3ba90fe47e","computer","Desktop or Laptop","Windows 10","Chrome 85.0.4183.121","1920x1080","1920x969","DiagramNoFeedback","DiagramNoFeedback","DiagramNoFeedback",10,"1",4,"OwnDiagram","Zone1","continue_button",138278.52,NA,NA,"",NA,"MuziekDiagramNoFeedback",NA
"23",1601717167936,2,"03/10/2020 11:26:07","BLIND",1951490,NA,"complete",NA,"5f7840fc881adf3ba90fe47e","computer","Desktop or Laptop","Windows 10","Chrome 85.0.4183.121","1920x1080","1920x969","DiagramNoFeedback","DiagramNoFeedback","DiagramNoFeedback",10,"1",5,"JoL2","Three","response_button_text",138278.52,NA,NA,"1",1,"MuziekDiagramNoFeedback",NA
"24",1601717169355,2,"03/10/2020 11:26:09","BLIND",1951490,NA,"complete",NA,"5f7840fc881adf3ba90fe47e","computer","Desktop or Laptop","Windows 10","Chrome 85.0.4183.121","1920x1080","1920x969","DiagramNoFeedback","DiagramNoFeedback","DiagramNoFeedback",10,"1",6,"InstructieToets","advancementZone","continue_button",138278.52,NA,NA,"",NA,"MuziekDiagramNoFeedback",NA
"25",1601719564121,2,"03/10/2020 12:06:04","BLIND",1951490,NA,"complete",NA,"5f7840fc881adf3ba90fe47e","computer","Desktop or Laptop","Windows 10","Chrome 85.0.4183.121","1920x1080","1920x969","DiagramNoFeedback","DiagramNoFeedback","DiagramNoFeedback",10,"1",7,"Test","buttonA","response_text_area",138278.52,NA,NA,"PAalVkmk",NA,"MuziekDiagramNoFeedback",NA
"26",1601719564152,2,"03/10/2020 12:06:04","BLIND",1951490,NA,"complete",NA,"5f7840fc881adf3ba90fe47e","computer","Desktop or Laptop","Windows 10","Chrome 85.0.4183.121","1920x1080","1920x969","DiagramNoFeedback","DiagramNoFeedback","DiagramNoFeedback",10,"1",7,"Test","buttonB","continue_button",138278.52,NA,NA,"",NA,"MuziekDiagramNoFeedback",NA
"27",1601719566466,2,"03/10/2020 12:06:06","BLIND",1951490,NA,"complete",NA,"5f7840fc881adf3ba90fe47e","computer","Desktop or Laptop","Windows 10","Chrome 85.0.4183.121","1920x1080","1920x969","DiagramNoFeedback","DiagramNoFeedback","DiagramNoFeedback",3,"1",1,"Screen 1","advancementZone","continue_button",138278.52,NA,NA,"",NA,"ReadyForNextTextScreen",NA
"28",1601719660370,2,"03/10/2020 12:07:40","BLIND",1951490,NA,"complete",NA,"5f7840fc881adf3ba90fe47e","computer","Desktop or Laptop","Windows 10","Chrome 85.0.4183.121","1920x1080","1920x969","DiagramNoFeedback","DiagramNoFeedback","DiagramNoFeedback",6,"1",1,"Text","advancementZone","continue_button",138278.52,NA,NA,"",NA,"SuezDiagramNoFeedback",NA
"29",1601719662046,2,"03/10/2020 12:07:42","BLIND",1951490,NA,"complete",NA,"5f7840fc881adf3ba90fe47e","computer","Desktop or Laptop","Windows 10","Chrome 85.0.4183.121","1920x1080","1920x969","DiagramNoFeedback","DiagramNoFeedback","DiagramNoFeedback",6,"1",2,"JoL1","Two","response_button_text",138278.52,NA,NA,"1",1,"SuezDiagramNoFeedback",NA
"3",1601716756049,2,"03/10/2020 11:19:16","BLIND",1951490,NA,"complete",NA,"5f7840fc881adf3ba90fe47e","computer","Desktop or Laptop","Windows 10","Chrome 85.0.4183.121","1920x1080","1920x969","DiagramNoFeedback","DiagramNoFeedback","DiagramNoFeedback",1,"1",2,"JoL1","Two","response_button_text",138278.52,NA,NA,"1",1,"SportenDiagramNoFeedback",NA
"30",1601719759029,2,"03/10/2020 12:09:19","BLIND",1951490,NA,"complete",NA,"5f7840fc881adf3ba90fe47e","computer","Desktop or Laptop","Windows 10","Chrome 85.0.4183.121","1920x1080","1920x969","DiagramNoFeedback","DiagramNoFeedback","DiagramNoFeedback",6,"1",3,"Diagram","DiagBox2","response_text_area",138278.52,NA,NA,"X7",NA,"SuezDiagramNoFeedback",NA
"31",1601719759030,2,"03/10/2020 12:09:19","BLIND",1951490,NA,"complete",NA,"5f7840fc881adf3ba90fe47e","computer","Desktop or Laptop","Windows 10","Chrome 85.0.4183.121","1920x1080","1920x969","DiagramNoFeedback","DiagramNoFeedback","DiagramNoFeedback",6,"1",3,"Diagram","DiagBox3","response_text_area",138278.52,NA,NA,"2VQ",NA,"SuezDiagramNoFeedback",NA
"32",1601719759031,2,"03/10/2020 12:09:19","BLIND",1951490,NA,"complete",NA,"5f7840fc881adf3ba90fe47e","computer","Desktop or Laptop","Windows 10","Chrome 85.0.4183.121","1920x1080","1920x969","DiagramNoFeedback","DiagramNoFeedback","DiagramNoFeedback",6,"1",3,"Diagram","DiagBox4","response_text_area",138278.52,NA,NA,"KS3Q8cr2rR",NA,"SuezDiagramNoFeedback",NA
"33",1601719759031,2,"03/10/2020 12:09:19","BLIND",1951490,NA,"complete",NA,"5f7840fc881adf3ba90fe47e","computer","Desktop or Laptop","Windows 10","Chrome 85.0.4183.121","1920x1080","1920x969","DiagramNoFeedback","DiagramNoFeedback","DiagramNoFeedback",6,"1",3,"Diagram","DiagBox1","response_text_area",138278.52,NA,NA,"mAv",NA,"SuezDiagramNoFeedback",NA
"34",1601719759031,2,"03/10/2020 12:09:19","BLIND",1951490,NA,"complete",NA,"5f7840fc881adf3ba90fe47e","computer","Desktop or Laptop","Windows 10","Chrome 85.0.4183.121","1920x1080","1920x969","DiagramNoFeedback","DiagramNoFeedback","DiagramNoFeedback",6,"1",3,"Diagram","Zone1","continue_button",138278.52,NA,NA,"",NA,"SuezDiagramNoFeedback",NA
"35",1601719762005,2,"03/10/2020 12:09:22","BLIND",1951490,NA,"complete",NA,"5f7840fc881adf3ba90fe47e","computer","Desktop or Laptop","Windows 10","Chrome 85.0.4183.121","1920x1080","1920x969","DiagramNoFeedback","DiagramNoFeedback","DiagramNoFeedback",6,"1",4,"OwnDiagram","Zone1","continue_button",138278.52,NA,NA,"",NA,"SuezDiagramNoFeedback",NA
"36",1601719765701,2,"03/10/2020 12:09:25","BLIND",1951490,NA,"complete",NA,"5f7840fc881adf3ba90fe47e","computer","Desktop or Laptop","Windows 10","Chrome 85.0.4183.121","1920x1080","1920x969","DiagramNoFeedback","DiagramNoFeedback","DiagramNoFeedback",6,"1",5,"JoL2","Three","response_button_text",138278.52,NA,NA,"1",1,"SuezDiagramNoFeedback",NA
"37",1601719767069,2,"03/10/2020 12:09:27","BLIND",1951490,NA,"complete",NA,"5f7840fc881adf3ba90fe47e","computer","Desktop or Laptop","Windows 10","Chrome 85.0.4183.121","1920x1080","1920x969","DiagramNoFeedback","DiagramNoFeedback","DiagramNoFeedback",6,"1",6,"InstructieToets","advancementZone","continue_button",138278.52,NA,NA,"",NA,"SuezDiagramNoFeedback",NA
"38",1601719852596,2,"03/10/2020 12:10:52","BLIND",1951490,NA,"complete",NA,"5f7840fc881adf3ba90fe47e","computer","Desktop or Laptop","Windows 10","Chrome 85.0.4183.121","1920x1080","1920x969","DiagramNoFeedback","DiagramNoFeedback","DiagramNoFeedback",6,"1",7,"Test","buttonA","response_text_area",138278.52,NA,NA,"LeMM21",NA,"SuezDiagramNoFeedback",NA
"39",1601719852598,2,"03/10/2020 12:10:52","BLIND",1951490,NA,"complete",NA,"5f7840fc881adf3ba90fe47e","computer","Desktop or Laptop","Windows 10","Chrome 85.0.4183.121","1920x1080","1920x969","DiagramNoFeedback","DiagramNoFeedback","DiagramNoFeedback",6,"1",7,"Test","buttonB","continue_button",138278.52,NA,NA,"",NA,"SuezDiagramNoFeedback",NA
"4",1601716901438,2,"03/10/2020 11:21:41","BLIND",1951490,NA,"complete",NA,"5f7840fc881adf3ba90fe47e","computer","Desktop or Laptop","Windows 10","Chrome 85.0.4183.121","1920x1080","1920x969","DiagramNoFeedback","DiagramNoFeedback","DiagramNoFeedback",1,"1",3,"Diagram","DiagBox1","response_text_area",138278.52,NA,NA,"lem8V",NA,"SportenDiagramNoFeedback",NA
"40",1601719854291,2,"03/10/2020 12:10:54","BLIND",1951490,NA,"complete",NA,"5f7840fc881adf3ba90fe47e","computer","Desktop or Laptop","Windows 10","Chrome 85.0.4183.121","1920x1080","1920x969","DiagramNoFeedback","DiagramNoFeedback","DiagramNoFeedback",5,"2",1,"Screen 1","advancementZone","continue_button",138278.52,NA,NA,"",NA,"ReadyForNextTextScreen",NA
"41",1601719959735,2,"03/10/2020 12:12:39","BLIND",1951490,NA,"complete",NA,"5f7840fc881adf3ba90fe47e","computer","Desktop or Laptop","Windows 10","Chrome 85.0.4183.121","1920x1080","1920x969","DiagramNoFeedback","DiagramNoFeedback","DiagramNoFeedback",8,"1",1,"Text","advancementZone","continue_button",138278.52,NA,NA,"",NA,"BotoxDiagramNoFeedback",NA
"42",1601719961627,2,"03/10/2020 12:12:41","BLIND",1951490,NA,"complete",NA,"5f7840fc881adf3ba90fe47e","computer","Desktop or Laptop","Windows 10","Chrome 85.0.4183.121","1920x1080","1920x969","DiagramNoFeedback","DiagramNoFeedback","DiagramNoFeedback",8,"1",2,"JoL1","Two","response_button_text",138278.52,NA,NA,"1",1,"BotoxDiagramNoFeedback",NA
"43",1601720125727,2,"03/10/2020 12:15:25","BLIND",1951490,NA,"complete",NA,"5f7840fc881adf3ba90fe47e","computer","Desktop or Laptop","Windows 10","Chrome 85.0.4183.121","1920x1080","1920x969","DiagramNoFeedback","DiagramNoFeedback","DiagramNoFeedback",8,"1",3,"Diagram","DiagBox3","response_text_area",138278.52,NA,NA,"RrfgkPEt",NA,"BotoxDiagramNoFeedback",NA
"44",1601720125738,2,"03/10/2020 12:15:25","BLIND",1951490,NA,"complete",NA,"5f7840fc881adf3ba90fe47e","computer","Desktop or Laptop","Windows 10","Chrome 85.0.4183.121","1920x1080","1920x969","DiagramNoFeedback","DiagramNoFeedback","DiagramNoFeedback",8,"1",3,"Diagram","DiagBox4","response_text_area",138278.52,NA,NA,"G6SHzxi",NA,"BotoxDiagramNoFeedback",NA
"45",1601720125738,2,"03/10/2020 12:15:25","BLIND",1951490,NA,"complete",NA,"5f7840fc881adf3ba90fe47e","computer","Desktop or Laptop","Windows 10","Chrome 85.0.4183.121","1920x1080","1920x969","DiagramNoFeedback","DiagramNoFeedback","DiagramNoFeedback",8,"1",3,"Diagram","DiagBox2","response_text_area",138278.52,NA,NA,"jkPfR6",NA,"BotoxDiagramNoFeedback",NA
"46",1601720125738,2,"03/10/2020 12:15:25","BLIND",1951490,NA,"complete",NA,"5f7840fc881adf3ba90fe47e","computer","Desktop or Laptop","Windows 10","Chrome 85.0.4183.121","1920x1080","1920x969","DiagramNoFeedback","DiagramNoFeedback","DiagramNoFeedback",8,"1",3,"Diagram","DiagBox1","response_text_area",138278.52,NA,NA,"tz7ReZzLGt",NA,"BotoxDiagramNoFeedback",NA
"47",1601720125739,2,"03/10/2020 12:15:25","BLIND",1951490,NA,"complete",NA,"5f7840fc881adf3ba90fe47e","computer","Desktop or Laptop","Windows 10","Chrome 85.0.4183.121","1920x1080","1920x969","DiagramNoFeedback","DiagramNoFeedback","DiagramNoFeedback",8,"1",3,"Diagram","Zone1","continue_button",138278.52,NA,NA,"",NA,"BotoxDiagramNoFeedback",NA
"48",1601720128074,2,"03/10/2020 12:15:28","BLIND",1951490,NA,"complete",NA,"5f7840fc881adf3ba90fe47e","computer","Desktop or Laptop","Windows 10","Chrome 85.0.4183.121","1920x1080","1920x969","DiagramNoFeedback","DiagramNoFeedback","DiagramNoFeedback",8,"1",4,"OwnDiagram","Zone1","continue_button",138278.52,NA,NA,"",NA,"BotoxDiagramNoFeedback",NA
"49",1601720131579,2,"03/10/2020 12:15:31","BLIND",1951490,NA,"complete",NA,"5f7840fc881adf3ba90fe47e","computer","Desktop or Laptop","Windows 10","Chrome 85.0.4183.121","1920x1080","1920x969","DiagramNoFeedback","DiagramNoFeedback","DiagramNoFeedback",8,"1",5,"JoL2","Three","response_button_text",138278.52,NA,NA,"1",1,"BotoxDiagramNoFeedback",NA
"5",1601716901441,2,"03/10/2020 11:21:41","BLIND",1951490,NA,"complete",NA,"5f7840fc881adf3ba90fe47e","computer","Desktop or Laptop","Windows 10","Chrome 85.0.4183.121","1920x1080","1920x969","DiagramNoFeedback","DiagramNoFeedback","DiagramNoFeedback",1,"1",3,"Diagram","DiagBox2","response_text_area",138278.52,NA,NA,"Z5uCK53",NA,"SportenDiagramNoFeedback",NA
"50",1601720132827,2,"03/10/2020 12:15:32","BLIND",1951490,NA,"complete",NA,"5f7840fc881adf3ba90fe47e","computer","Desktop or Laptop","Windows 10","Chrome 85.0.4183.121","1920x1080","1920x969","DiagramNoFeedback","DiagramNoFeedback","DiagramNoFeedback",8,"1",6,"InstructieToets","advancementZone","continue_button",138278.52,NA,NA,"",NA,"BotoxDiagramNoFeedback",NA
"51",1601720208229,2,"03/10/2020 12:16:48","BLIND",1951490,NA,"complete",NA,"5f7840fc881adf3ba90fe47e","computer","Desktop or Laptop","Windows 10","Chrome 85.0.4183.121","1920x1080","1920x969","DiagramNoFeedback","DiagramNoFeedback","DiagramNoFeedback",8,"1",7,"Test","buttonA","response_text_area",138278.52,NA,NA,"6hF",NA,"BotoxDiagramNoFeedback",NA
"52",1601720208233,2,"03/10/2020 12:16:48","BLIND",1951490,NA,"complete",NA,"5f7840fc881adf3ba90fe47e","computer","Desktop or Laptop","Windows 10","Chrome 85.0.4183.121","1920x1080","1920x969","DiagramNoFeedback","DiagramNoFeedback","DiagramNoFeedback",8,"1",7,"Test","buttonB","continue_button",138278.52,NA,NA,"",NA,"BotoxDiagramNoFeedback",NA
"53",1601720209811,2,"03/10/2020 12:16:49","BLIND",1951490,NA,"complete",NA,"5f7840fc881adf3ba90fe47e","computer","Desktop or Laptop","Windows 10","Chrome 85.0.4183.121","1920x1080","1920x969","DiagramNoFeedback","DiagramNoFeedback","DiagramNoFeedback",7,"3",1,"Screen 1","advancementZone","continue_button",138278.52,NA,NA,"",NA,"ReadyForNextTextScreen",NA
"54",1601720217759,2,"03/10/2020 12:16:57","BLIND",1951490,NA,"complete",NA,"5f7840fc881adf3ba90fe47e","computer","Desktop or Laptop","Windows 10","Chrome 85.0.4183.121","1920x1080","1920x969","DiagramNoFeedback","DiagramNoFeedback","DiagramNoFeedback",4,"1",1,"Text","advancementZone","continue_button",138278.52,NA,NA,"",NA,"BetonDiagramNoFeedback",NA
"55",1601720240404,2,"03/10/2020 12:17:20","BLIND",1951490,NA,"complete",NA,"5f7840fc881adf3ba90fe47e","computer","Desktop or Laptop","Windows 10","Chrome 85.0.4183.121","1920x1080","1920x969","DiagramNoFeedback","DiagramNoFeedback","DiagramNoFeedback",4,"1",2,"JoL1","Three","response_button_text",138278.52,NA,NA,"1",1,"BetonDiagramNoFeedback",NA
"56",1601720338434,2,"03/10/2020 12:18:58","BLIND",1951490,NA,"complete",NA,"5f7840fc881adf3ba90fe47e","computer","Desktop or Laptop","Windows 10","Chrome 85.0.4183.121","1920x1080","1920x969","DiagramNoFeedback","DiagramNoFeedback","DiagramNoFeedback",4,"1",3,"Diagram","DiagBox2","response_text_area",138278.52,NA,NA,"WKn",NA,"BetonDiagramNoFeedback",NA
"57",1601720338436,2,"03/10/2020 12:18:58","BLIND",1951490,NA,"complete",NA,"5f7840fc881adf3ba90fe47e","computer","Desktop or Laptop","Windows 10","Chrome 85.0.4183.121","1920x1080","1920x969","DiagramNoFeedback","DiagramNoFeedback","DiagramNoFeedback",4,"1",3,"Diagram","DiagBox3","response_text_area",138278.52,NA,NA,"fjMwNwLV",NA,"BetonDiagramNoFeedback",NA
"58",1601720338436,2,"03/10/2020 12:18:58","BLIND",1951490,NA,"complete",NA,"5f7840fc881adf3ba90fe47e","computer","Desktop or Laptop","Windows 10","Chrome 85.0.4183.121","1920x1080","1920x969","DiagramNoFeedback","DiagramNoFeedback","DiagramNoFeedback",4,"1",3,"Diagram","DiagBox4","response_text_area",138278.52,NA,NA,"?",NA,"BetonDiagramNoFeedback",NA
"59",1601720338436,2,"03/10/2020 12:18:58","BLIND",1951490,NA,"complete",NA,"5f7840fc881adf3ba90fe47e","computer","Desktop or Laptop","Windows 10","Chrome 85.0.4183.121","1920x1080","1920x969","DiagramNoFeedback","DiagramNoFeedback","DiagramNoFeedback",4,"1",3,"Diagram","DiagBox1","response_text_area",138278.52,NA,NA,"dhy",NA,"BetonDiagramNoFeedback",NA
"6",1601716901441,2,"03/10/2020 11:21:41","BLIND",1951490,NA,"complete",NA,"5f7840fc881adf3ba90fe47e","computer","Desktop or Laptop","Windows 10","Chrome 85.0.4183.121","1920x1080","1920x969","DiagramNoFeedback","DiagramNoFeedback","DiagramNoFeedback",1,"1",3,"Diagram","DiagBox3","response_text_area",138278.52,NA,NA,"u27k",NA,"SportenDiagramNoFeedback",NA
"60",1601720338436,2,"03/10/2020 12:18:58","BLIND",1951490,NA,"complete",NA,"5f7840fc881adf3ba90fe47e","computer","Desktop or Laptop","Windows 10","Chrome 85.0.4183.121","1920x1080","1920x969","DiagramNoFeedback","DiagramNoFeedback","DiagramNoFeedback",4,"1",3,"Diagram","Zone1","continue_button",138278.52,NA,NA,"",NA,"BetonDiagramNoFeedback",NA
"61",1601720340505,2,"03/10/2020 12:19:00","BLIND",1951490,NA,"complete",NA,"5f7840fc881adf3ba90fe47e","computer","Desktop or Laptop","Windows 10","Chrome 85.0.4183.121","1920x1080","1920x969","DiagramNoFeedback","DiagramNoFeedback","DiagramNoFeedback",4,"1",4,"OwnDiagram","Zone1","continue_button",138278.52,NA,NA,"",NA,"BetonDiagramNoFeedback",NA
"62",1601720344794,2,"03/10/2020 12:19:04","BLIND",1951490,NA,"complete",NA,"5f7840fc881adf3ba90fe47e","computer","Desktop or Laptop","Windows 10","Chrome 85.0.4183.121","1920x1080","1920x969","DiagramNoFeedback","DiagramNoFeedback","DiagramNoFeedback",4,"1",5,"JoL2","Three","response_button_text",138278.52,NA,NA,"1",1,"BetonDiagramNoFeedback",NA
"63",1601720346459,2,"03/10/2020 12:19:06","BLIND",1951490,NA,"complete",NA,"5f7840fc881adf3ba90fe47e","computer","Desktop or Laptop","Windows 10","Chrome 85.0.4183.121","1920x1080","1920x969","DiagramNoFeedback","DiagramNoFeedback","DiagramNoFeedback",4,"1",6,"InstructieToets","advancementZone","continue_button",138278.52,NA,NA,"",NA,"BetonDiagramNoFeedback",NA
"64",1601720458787,2,"03/10/2020 12:20:58","BLIND",1951490,NA,"complete",NA,"5f7840fc881adf3ba90fe47e","computer","Desktop or Laptop","Windows 10","Chrome 85.0.4183.121","1920x1080","1920x969","DiagramNoFeedback","DiagramNoFeedback","DiagramNoFeedback",4,"1",7,"Test","buttonA","response_text_area",138278.52,NA,NA,"EBxHv7jZ",NA,"BetonDiagramNoFeedback",NA
"65",1601720458790,2,"03/10/2020 12:20:58","BLIND",1951490,NA,"complete",NA,"5f7840fc881adf3ba90fe47e","computer","Desktop or Laptop","Windows 10","Chrome 85.0.4183.121","1920x1080","1920x969","DiagramNoFeedback","DiagramNoFeedback","DiagramNoFeedback",4,"1",7,"Test","buttonB","continue_button",138278.52,NA,NA,"",NA,"BetonDiagramNoFeedback",NA
"66",1601720540667,2,"03/10/2020 12:22:20","BLIND",1951490,NA,"complete",NA,"5f7840fc881adf3ba90fe47e","computer","Desktop or Laptop","Windows 10","Chrome 85.0.4183.121","1920x1080","1920x969","DiagramNoFeedback","DiagramNoFeedback","DiagramNoFeedback",9,"4",1,"Screen 1","advancementZone","continue_button",138278.52,NA,NA,"",NA,"ReadyForNextTextScreen",NA
"67",1601720546179,2,"03/10/2020 12:22:26","BLIND",1951490,NA,"complete",NA,"5f7840fc881adf3ba90fe47e","computer","Desktop or Laptop","Windows 10","Chrome 85.0.4183.121","1920x1080","1920x969","DiagramNoFeedback","DiagramNoFeedback","DiagramNoFeedback",12,"1",1,"Text","advancementZone","continue_button",138278.52,NA,NA,"",NA,"GeldDiagramNoFeedback",NA
"68",1601720562860,2,"03/10/2020 12:22:42","BLIND",1951490,NA,"complete",NA,"5f7840fc881adf3ba90fe47e","computer","Desktop or Laptop","Windows 10","Chrome 85.0.4183.121","1920x1080","1920x969","DiagramNoFeedback","DiagramNoFeedback","DiagramNoFeedback",12,"1",2,"JoL1","One","response_button_text",138278.52,NA,NA,"1",1,"GeldDiagramNoFeedback",NA
"69",1601720745010,2,"03/10/2020 12:25:45","BLIND",1951490,NA,"complete",NA,"5f7840fc881adf3ba90fe47e","computer","Desktop or Laptop","Windows 10","Chrome 85.0.4183.121","1920x1080","1920x969","DiagramNoFeedback","DiagramNoFeedback","DiagramNoFeedback",12,"1",3,"Diagram","DiagBox2","response_text_area",138278.52,NA,NA,"?",NA,"GeldDiagramNoFeedback",NA
"7",1601716901442,2,"03/10/2020 11:21:41","BLIND",1951490,NA,"complete",NA,"5f7840fc881adf3ba90fe47e","computer","Desktop or Laptop","Windows 10","Chrome 85.0.4183.121","1920x1080","1920x969","DiagramNoFeedback","DiagramNoFeedback","DiagramNoFeedback",1,"1",3,"Diagram","DiagBox4","response_text_area",138278.52,NA,NA,"zvCnPX",NA,"SportenDiagramNoFeedback",NA
"70",1601720745014,2,"03/10/2020 12:25:45","BLIND",1951490,NA,"complete",NA,"5f7840fc881adf3ba90fe47e","computer","Desktop or Laptop","Windows 10","Chrome 85.0.4183.121","1920x1080","1920x969","DiagramNoFeedback","DiagramNoFeedback","DiagramNoFeedback",12,"1",3,"Diagram","DiagBox3","response_text_area",138278.52,NA,NA,"dLRF",NA,"GeldDiagramNoFeedback",NA
"71",1601720745014,2,"03/10/2020 12:25:45","BLIND",1951490,NA,"complete",NA,"5f7840fc881adf3ba90fe47e","computer","Desktop or Laptop","Windows 10","Chrome 85.0.4183.121","1920x1080","1920x969","DiagramNoFeedback","DiagramNoFeedback","DiagramNoFeedback",12,"1",3,"Diagram","DiagBox4","response_text_area",138278.52,NA,NA,"cf55",NA,"GeldDiagramNoFeedback",NA
"72",1601720745015,2,"03/10/2020 12:25:45","BLIND",1951490,NA,"complete",NA,"5f7840fc881adf3ba90fe47e","computer","Desktop or Laptop","Windows 10","Chrome 85.0.4183.121","1920x1080","1920x969","DiagramNoFeedback","DiagramNoFeedback","DiagramNoFeedback",12,"1",3,"Diagram","DiagBox1","response_text_area",138278.52,NA,NA,"?",NA,"GeldDiagramNoFeedback",NA
"73",1601720745015,2,"03/10/2020 12:25:45","BLIND",1951490,NA,"complete",NA,"5f7840fc881adf3ba90fe47e","computer","Desktop or Laptop","Windows 10","Chrome 85.0.4183.121","1920x1080","1920x969","DiagramNoFeedback","DiagramNoFeedback","DiagramNoFeedback",12,"1",3,"Diagram","Zone1","continue_button",138278.52,NA,NA,"",NA,"GeldDiagramNoFeedback",NA
"74",1601720746004,2,"03/10/2020 12:25:46","BLIND",1951490,NA,"complete",NA,"5f7840fc881adf3ba90fe47e","computer","Desktop or Laptop","Windows 10","Chrome 85.0.4183.121","1920x1080","1920x969","DiagramNoFeedback","DiagramNoFeedback","DiagramNoFeedback",12,"1",4,"OwnDiagram","Zone1","continue_button",138278.52,NA,NA,"",NA,"GeldDiagramNoFeedback",NA
"75",1601720747917,2,"03/10/2020 12:25:47","BLIND",1951490,NA,"complete",NA,"5f7840fc881adf3ba90fe47e","computer","Desktop or Laptop","Windows 10","Chrome 85.0.4183.121","1920x1080","1920x969","DiagramNoFeedback","DiagramNoFeedback","DiagramNoFeedback",12,"1",5,"JoL2","Two","response_button_text",138278.52,NA,NA,"1",1,"GeldDiagramNoFeedback",NA
"76",1601720749248,2,"03/10/2020 12:25:49","BLIND",1951490,NA,"complete",NA,"5f7840fc881adf3ba90fe47e","computer","Desktop or Laptop","Windows 10","Chrome 85.0.4183.121","1920x1080","1920x969","DiagramNoFeedback","DiagramNoFeedback","DiagramNoFeedback",12,"1",6,"InstructieToets","advancementZone","continue_button",138278.52,NA,NA,"",NA,"GeldDiagramNoFeedback",NA
"77",1601720820111,2,"03/10/2020 12:27:00","BLIND",1951490,NA,"complete",NA,"5f7840fc881adf3ba90fe47e","computer","Desktop or Laptop","Windows 10","Chrome 85.0.4183.121","1920x1080","1920x969","DiagramNoFeedback","DiagramNoFeedback","DiagramNoFeedback",12,"1",7,"Test","buttonA","response_text_area",138278.52,NA,NA,"dN39YNYAx",NA,"GeldDiagramNoFeedback",NA
"78",1601720820154,2,"03/10/2020 12:27:00","BLIND",1951490,NA,"complete",NA,"5f7840fc881adf3ba90fe47e","computer","Desktop or Laptop","Windows 10","Chrome 85.0.4183.121","1920x1080","1920x969","DiagramNoFeedback","DiagramNoFeedback","DiagramNoFeedback",12,"1",7,"Test","buttonB","continue_button",138278.52,NA,NA,"",NA,"GeldDiagramNoFeedback",NA
"79",1601720821407,2,"03/10/2020 12:27:01","BLIND",1951490,NA,"complete",NA,"5f7840fc881adf3ba90fe47e","computer","Desktop or Laptop","Windows 10","Chrome 85.0.4183.121","1920x1080","1920x969","DiagramNoFeedback","DiagramNoFeedback","DiagramNoFeedback",11,"5",1,"Screen 1","advancementZone","continue_button",138278.52,NA,NA,"",NA,"ReadyForNextTextScreen",NA
"8",1601716901442,2,"03/10/2020 11:21:41","BLIND",1951490,NA,"complete",NA,"5f7840fc881adf3ba90fe47e","computer","Desktop or Laptop","Windows 10","Chrome 85.0.4183.121","1920x1080","1920x969","DiagramNoFeedback","DiagramNoFeedback","DiagramNoFeedback",1,"1",3,"Diagram","Zone1","continue_button",138278.52,NA,NA,"",NA,"SportenDiagramNoFeedback",NA
"80",1601720863726,2,"03/10/2020 12:27:43","BLIND",1951490,NA,"complete",NA,"5f7840fc881adf3ba90fe47e","computer","Desktop or Laptop","Windows 10","Chrome 85.0.4183.121","1920x1080","1920x969","DiagramNoFeedback","DiagramNoFeedback","DiagramNoFeedback",2,"1",1,"Text","advancementZone","continue_button",138278.52,NA,NA,"",NA,"MetroDiagramNoFeedback",NA
"81",1601720872529,2,"03/10/2020 12:27:52","BLIND",1951490,NA,"complete",NA,"5f7840fc881adf3ba90fe47e","computer","Desktop or Laptop","Windows 10","Chrome 85.0.4183.121","1920x1080","1920x969","DiagramNoFeedback","DiagramNoFeedback","DiagramNoFeedback",2,"1",2,"JoL1","Four","response_button_text",138278.52,NA,NA,"1",1,"MetroDiagramNoFeedback",NA
"82",1601720971511,2,"03/10/2020 12:29:31","BLIND",1951490,NA,"complete",NA,"5f7840fc881adf3ba90fe47e","computer","Desktop or Laptop","Windows 10","Chrome 85.0.4183.121","1920x1080","1920x969","DiagramNoFeedback","DiagramNoFeedback","DiagramNoFeedback",2,"1",3,"Diagram","DiagBox1","response_text_area",138278.52,NA,NA,"RScfnZhj9",NA,"MetroDiagramNoFeedback",NA
"83",1601720971513,2,"03/10/2020 12:29:31","BLIND",1951490,NA,"complete",NA,"5f7840fc881adf3ba90fe47e","computer","Desktop or Laptop","Windows 10","Chrome 85.0.4183.121","1920x1080","1920x969","DiagramNoFeedback","DiagramNoFeedback","DiagramNoFeedback",2,"1",3,"Diagram","DiagBox3","response_text_area",138278.52,NA,NA,"KMWPZi",NA,"MetroDiagramNoFeedback",NA
"84",1601720971514,2,"03/10/2020 12:29:31","BLIND",1951490,NA,"complete",NA,"5f7840fc881adf3ba90fe47e","computer","Desktop or Laptop","Windows 10","Chrome 85.0.4183.121","1920x1080","1920x969","DiagramNoFeedback","DiagramNoFeedback","DiagramNoFeedback",2,"1",3,"Diagram","DiagBox4","response_text_area",138278.52,NA,NA,"ao6Ogy3EA",NA,"MetroDiagramNoFeedback",NA
"85",1601720971514,2,"03/10/2020 12:29:31","BLIND",1951490,NA,"complete",NA,"5f7840fc881adf3ba90fe47e","computer","Desktop or Laptop","Windows 10","Chrome 85.0.4183.121","1920x1080","1920x969","DiagramNoFeedback","DiagramNoFeedback","DiagramNoFeedback",2,"1",3,"Diagram","DiagBox2","response_text_area",138278.52,NA,NA,"iruGQWEw0",NA,"MetroDiagramNoFeedback",NA
"86",1601720971514,2,"03/10/2020 12:29:31","BLIND",1951490,NA,"complete",NA,"5f7840fc881adf3ba90fe47e","computer","Desktop or Laptop","Windows 10","Chrome 85.0.4183.121","1920x1080","1920x969","DiagramNoFeedback","DiagramNoFeedback","DiagramNoFeedback",2,"1",3,"Diagram","Zone3","continue_button",138278.52,NA,NA,"",NA,"MetroDiagramNoFeedback",NA
"87",1601720976069,2,"03/10/2020 12:29:36","BLIND",1951490,NA,"complete",NA,"5f7840fc881adf3ba90fe47e","computer","Desktop or Laptop","Windows 10","Chrome 85.0.4183.121","1920x1080","1920x969","DiagramNoFeedback","DiagramNoFeedback","DiagramNoFeedback",2,"1",4,"OwnDiagramDis","Zone3","continue_button",138278.52,NA,NA,"",NA,"MetroDiagramNoFeedback",NA
"88",1601720978456,2,"03/10/2020 12:29:38","BLIND",1951490,NA,"complete",NA,"5f7840fc881adf3ba90fe47e","computer","Desktop or Laptop","Windows 10","Chrome 85.0.4183.121","1920x1080","1920x969","DiagramNoFeedback","DiagramNoFeedback","DiagramNoFeedback",2,"1",5,"JoL2","Four","response_button_text",138278.52,NA,NA,"1",1,"MetroDiagramNoFeedback",NA
"89",1601720980384,2,"03/10/2020 12:29:40","BLIND",1951490,NA,"complete",NA,"5f7840fc881adf3ba90fe47e","computer","Desktop or Laptop","Windows 10","Chrome 85.0.4183.121","1920x1080","1920x969","DiagramNoFeedback","DiagramNoFeedback","DiagramNoFeedback",2,"1",6,"InstructieToets","advancementZone","continue_button",138278.52,NA,NA,"",NA,"MetroDiagramNoFeedback",NA
"9",1601716903999,2,"03/10/2020 11:21:43","BLIND",1951490,NA,"complete",NA,"5f7840fc881adf3ba90fe47e","computer","Desktop or Laptop","Windows 10","Chrome 85.0.4183.121","1920x1080","1920x969","DiagramNoFeedback","DiagramNoFeedback","DiagramNoFeedback",1,"1",4,"OwnDiagram","Zone1","continue_button",138278.52,NA,NA,"",NA,"SportenDiagramNoFeedback",NA
"90",1601721068270,2,"03/10/2020 12:31:08","BLIND",1951490,NA,"complete",NA,"5f7840fc881adf3ba90fe47e","computer","Desktop or Laptop","Windows 10","Chrome 85.0.4183.121","1920x1080","1920x969","DiagramNoFeedback","DiagramNoFeedback","DiagramNoFeedback",2,"1",7,"Test","buttonA","response_text_area",138278.52,NA,NA,"BAbW",NA,"MetroDiagramNoFeedback",NA
"91",1601721068271,2,"03/10/2020 12:31:08","BLIND",1951490,NA,"complete",NA,"5f7840fc881adf3ba90fe47e","computer","Desktop or Laptop","Windows 10","Chrome 85.0.4183.121","1920x1080","1920x969","DiagramNoFeedback","DiagramNoFeedback","DiagramNoFeedback",2,"1",7,"Test","buttonB","continue_button",138278.52,NA,NA,"",NA,"MetroDiagramNoFeedback",NA
"92",1601721068304,2,"03/10/2020 12:31:08","BLIND",1951490,NA,"complete",NA,"5f7840fc881adf3ba90fe47e","computer","Desktop or Laptop","Windows 10","Chrome 85.0.4183.121","1920x1080","1920x969","DiagramNoFeedback","DiagramNoFeedback","",NA,"END TASK",NA,"","","",4366599,NA,NA,"",NA,"",NA
"1",1601663660160,2,"02/10/2020 20:34:20","BLIND",3417530,NA,"complete",NA,"5f7771cc500fed151d125bbc","computer","Desktop or Laptop","Windows 10","Chrome 85.0.4183.121","1536x864","1536x754","DiagramNoFeedback","DiagramNoFeedback","",NA,"BEGIN TASK",NA,"","","",NA,NA,NA,"",NA,"",NA
"10",1601663737865,2,"02/10/2020 20:35:37","BLIND",3417530,NA,"complete",NA,"5f7771cc500fed151d125bbc","computer","Desktop or Laptop","Windows 10","Chrome 85.0.4183.121","1536x864","1536x754","DiagramNoFeedback","DiagramNoFeedback","DiagramNoFeedback",1,"1",5,"JoL2","One","response_button_text",138278.52,NA,NA,"1",1,"SportenDiagramNoFeedback",NA
"11",1601663740311,2,"02/10/2020 20:35:40","BLIND",3417530,NA,"complete",NA,"5f7771cc500fed151d125bbc","computer","Desktop or Laptop","Windows 10","Chrome 85.0.4183.121","1536x864","1536x754","DiagramNoFeedback","DiagramNoFeedback","DiagramNoFeedback",1,"1",6,"InstructieToets","advancementZone","continue_button",138278.52,NA,NA,"",NA,"SportenDiagramNoFeedback",NA
"12",1601663776736,2,"02/10/2020 20:36:16","BLIND",3417530,NA,"complete",NA,"5f7771cc500fed151d125bbc","computer","Desktop or Laptop","Windows 10","Chrome 85.0.4183.121","1536x864","1536x754","DiagramNoFeedback","DiagramNoFeedback","DiagramNoFeedback",1,"1",7,"Test","buttonA","response_text_area",138278.52,NA,NA,"0iSiy",NA,"SportenDiagramNoFeedback",NA
"13",1601663776738,2,"02/10/2020 20:36:16","BLIND",3417530,NA,"complete",NA,"5f7771cc500fed151d125bbc","computer","Desktop or Laptop","Windows 10","Chrome 85.0.4183.121","1536x864","1536x754","DiagramNoFeedback","DiagramNoFeedback","DiagramNoFeedback",1,"1",7,"Test","buttonB","continue_button",138278.52,NA,NA,"",NA,"SportenDiagramNoFeedback",NA
"14",1601663778969,2,"02/10/2020 20:36:18","BLIND",3417530,NA,"complete",NA,"5f7771cc500fed151d125bbc","computer","Desktop or Laptop","Windows 10","Chrome 85.0.4183.121","1536x864","1536x754","DiagramNoFeedback","DiagramNoFeedback","DiagramNoFeedback",1,"1",8,"Klaar4Experiment","advancementZone","continue_button",138278.52,NA,NA,"",NA,"SportenDiagramNoFeedback",NA
"15",1601663829505,2,"02/10/2020 20:37:09","BLIND",3417530,NA,"complete",NA,"5f7771cc500fed151d125bbc","computer","Desktop or Laptop","Windows 10","Chrome 85.0.4183.121","1536x864","1536x754","DiagramNoFeedback","DiagramNoFeedback","DiagramNoFeedback",12,"1",1,"Text","advancementZone","continue_button",138278.52,NA,NA,"",NA,"GeldDiagramNoFeedback",NA
"16",1601663832730,2,"02/10/2020 20:37:12","BLIND",3417530,NA,"complete",NA,"5f7771cc500fed151d125bbc","computer","Desktop or Laptop","Windows 10","Chrome 85.0.4183.121","1536x864","1536x754","DiagramNoFeedback","DiagramNoFeedback","DiagramNoFeedback",12,"1",2,"JoL1","Two","response_button_text",138278.52,NA,NA,"1",1,"GeldDiagramNoFeedback",NA
"17",1601663987414,2,"02/10/2020 20:39:47","BLIND",3417530,NA,"complete",NA,"5f7771cc500fed151d125bbc","computer","Desktop or Laptop","Windows 10","Chrome 85.0.4183.121","1536x864","1536x754","DiagramNoFeedback","DiagramNoFeedback","DiagramNoFeedback",12,"1",3,"Diagram","DiagBox2","response_text_area",138278.52,NA,NA,"702YLSIu",NA,"GeldDiagramNoFeedback",NA
"18",1601663987421,2,"02/10/2020 20:39:47","BLIND",3417530,NA,"complete",NA,"5f7771cc500fed151d125bbc","computer","Desktop or Laptop","Windows 10","Chrome 85.0.4183.121","1536x864","1536x754","DiagramNoFeedback","DiagramNoFeedback","DiagramNoFeedback",12,"1",3,"Diagram","DiagBox3","response_text_area",138278.52,NA,NA,"i1bjx",NA,"GeldDiagramNoFeedback",NA
"19",1601663987422,2,"02/10/2020 20:39:47","BLIND",3417530,NA,"complete",NA,"5f7771cc500fed151d125bbc","computer","Desktop or Laptop","Windows 10","Chrome 85.0.4183.121","1536x864","1536x754","DiagramNoFeedback","DiagramNoFeedback","DiagramNoFeedback",12,"1",3,"Diagram","DiagBox4","response_text_area",138278.52,NA,NA,"zOacdLO6",NA,"GeldDiagramNoFeedback",NA
"2",1601663679847,2,"02/10/2020 20:34:39","BLIND",3417530,NA,"complete",NA,"5f7771cc500fed151d125bbc","computer","Desktop or Laptop","Windows 10","Chrome 85.0.4183.121","1536x864","1536x754","DiagramNoFeedback","DiagramNoFeedback","DiagramNoFeedback",1,"1",1,"Text","advancementZone","continue_button",138278.52,NA,NA,"",NA,"SportenDiagramNoFeedback",NA
"20",1601663987422,2,"02/10/2020 20:39:47","BLIND",3417530,NA,"complete",NA,"5f7771cc500fed151d125bbc","computer","Desktop or Laptop","Windows 10","Chrome 85.0.4183.121","1536x864","1536x754","DiagramNoFeedback","DiagramNoFeedback","DiagramNoFeedback",12,"1",3,"Diagram","DiagBox1","response_text_area",138278.52,NA,NA,"WQ",NA,"GeldDiagramNoFeedback",NA
"21",1601663987422,2,"02/10/2020 20:39:47","BLIND",3417530,NA,"complete",NA,"5f7771cc500fed151d125bbc","computer","Desktop or Laptop","Windows 10","Chrome 85.0.4183.121","1536x864","1536x754","DiagramNoFeedback","DiagramNoFeedback","DiagramNoFeedback",12,"1",3,"Diagram","Zone1","continue_button",138278.52,NA,NA,"",NA,"GeldDiagramNoFeedback",NA
"22",1601663989782,2,"02/10/2020 20:39:49","BLIND",3417530,NA,"complete",NA,"5f7771cc500fed151d125bbc","computer","Desktop or Laptop","Windows 10","Chrome 85.0.4183.121","1536x864","1536x754","DiagramNoFeedback","DiagramNoFeedback","DiagramNoFeedback",12,"1",4,"OwnDiagram","Zone1","continue_button",138278.52,NA,NA,"",NA,"GeldDiagramNoFeedback",NA
"23",1601663991167,2,"02/10/2020 20:39:51","BLIND",3417530,NA,"complete",NA,"5f7771cc500fed151d125bbc","computer","Desktop or Laptop","Windows 10","Chrome 85.0.4183.121","1536x864","1536x754","DiagramNoFeedback","DiagramNoFeedback","DiagramNoFeedback",12,"1",5,"JoL2","Two","response_button_text",138278.52,NA,NA,"1",1,"GeldDiagramNoFeedback",NA
"24",1601663992543,2,"02/10/2020 20:39:52","BLIND",3417530,NA,"complete",NA,"5f7771cc500fed151d125bbc","computer","Desktop or Laptop","Windows 10","Chrome 85.0.4183.121","1536x864","1536x754","DiagramNoFeedback","DiagramNoFeedback","DiagramNoFeedback",12,"1",6,"InstructieToets","advancementZone","continue_button",138278.52,NA,NA,"",NA,"GeldDiagramNoFeedback",NA
"25",1601664037341,2,"02/10/2020 20:40:37","BLIND",3417530,NA,"complete",NA,"5f7771cc500fed151d125bbc","computer","Desktop or Laptop","Windows 10","Chrome 85.0.4183.121","1536x864","1536x754","DiagramNoFeedback","DiagramNoFeedback","DiagramNoFeedback",12,"1",7,"Test","buttonA","response_text_area",138278.52,NA,NA,"HHC",NA,"GeldDiagramNoFeedback",NA
"26",1601664037344,2,"02/10/2020 20:40:37","BLIND",3417530,NA,"complete",NA,"5f7771cc500fed151d125bbc","computer","Desktop or Laptop","Windows 10","Chrome 85.0.4183.121","1536x864","1536x754","DiagramNoFeedback","DiagramNoFeedback","DiagramNoFeedback",12,"1",7,"Test","buttonB","continue_button",138278.52,NA,NA,"",NA,"GeldDiagramNoFeedback",NA
"27",1601664043266,2,"02/10/2020 20:40:43","BLIND",3417530,NA,"complete",NA,"5f7771cc500fed151d125bbc","computer","Desktop or Laptop","Windows 10","Chrome 85.0.4183.121","1536x864","1536x754","DiagramNoFeedback","DiagramNoFeedback","DiagramNoFeedback",3,"1",1,"Screen 1","advancementZone","continue_button",138278.52,NA,NA,"",NA,"ReadyForNextTextScreen",NA
"28",1601664116539,2,"02/10/2020 20:41:56","BLIND",3417530,NA,"complete",NA,"5f7771cc500fed151d125bbc","computer","Desktop or Laptop","Windows 10","Chrome 85.0.4183.121","1536x864","1536x754","DiagramNoFeedback","DiagramNoFeedback","DiagramNoFeedback",8,"1",1,"Text","advancementZone","continue_button",138278.52,NA,NA,"",NA,"BotoxDiagramNoFeedback",NA
"29",1601664119042,2,"02/10/2020 20:41:59","BLIND",3417530,NA,"complete",NA,"5f7771cc500fed151d125bbc","computer","Desktop or Laptop","Windows 10","Chrome 85.0.4183.121","1536x864","1536x754","DiagramNoFeedback","DiagramNoFeedback","DiagramNoFeedback",8,"1",2,"JoL1","Three","response_button_text",138278.52,NA,NA,"1",1,"BotoxDiagramNoFeedback",NA
"3",1601663681694,2,"02/10/2020 20:34:41","BLIND",3417530,NA,"complete",NA,"5f7771cc500fed151d125bbc","computer","Desktop or Laptop","Windows 10","Chrome 85.0.4183.121","1536x864","1536x754","DiagramNoFeedback","DiagramNoFeedback","DiagramNoFeedback",1,"1",2,"JoL1","Two","response_button_text",138278.52,NA,NA,"1",1,"SportenDiagramNoFeedback",NA
"30",1601664156528,2,"02/10/2020 20:42:36","BLIND",3417530,NA,"complete",NA,"5f7771cc500fed151d125bbc","computer","Desktop or Laptop","Windows 10","Chrome 85.0.4183.121","1536x864","1536x754","DiagramNoFeedback","DiagramNoFeedback","DiagramNoFeedback",8,"1",3,"Diagram","DiagBox3","response_text_area",138278.52,NA,NA,"X6O",NA,"BotoxDiagramNoFeedback",NA
"31",1601664156530,2,"02/10/2020 20:42:36","BLIND",3417530,NA,"complete",NA,"5f7771cc500fed151d125bbc","computer","Desktop or Laptop","Windows 10","Chrome 85.0.4183.121","1536x864","1536x754","DiagramNoFeedback","DiagramNoFeedback","DiagramNoFeedback",8,"1",3,"Diagram","DiagBox4","response_text_area",138278.52,NA,NA,"vWljYZH",NA,"BotoxDiagramNoFeedback",NA
"32",1601664156531,2,"02/10/2020 20:42:36","BLIND",3417530,NA,"complete",NA,"5f7771cc500fed151d125bbc","computer","Desktop or Laptop","Windows 10","Chrome 85.0.4183.121","1536x864","1536x754","DiagramNoFeedback","DiagramNoFeedback","DiagramNoFeedback",8,"1",3,"Diagram","DiagBox2","response_text_area",138278.52,NA,NA,"KKWap7NMK",NA,"BotoxDiagramNoFeedback",NA
"33",1601664156531,2,"02/10/2020 20:42:36","BLIND",3417530,NA,"complete",NA,"5f7771cc500fed151d125bbc","computer","Desktop or Laptop","Windows 10","Chrome 85.0.4183.121","1536x864","1536x754","DiagramNoFeedback","DiagramNoFeedback","DiagramNoFeedback",8,"1",3,"Diagram","DiagBox1","response_text_area",138278.52,NA,NA,"jtUFNWQlN",NA,"BotoxDiagramNoFeedback",NA
"34",1601664156531,2,"02/10/2020 20:42:36","BLIND",3417530,NA,"complete",NA,"5f7771cc500fed151d125bbc","computer","Desktop or Laptop","Windows 10","Chrome 85.0.4183.121","1536x864","1536x754","DiagramNoFeedback","DiagramNoFeedback","DiagramNoFeedback",8,"1",3,"Diagram","Zone1","continue_button",138278.52,NA,NA,"",NA,"BotoxDiagramNoFeedback",NA
"35",1601664157652,2,"02/10/2020 20:42:37","BLIND",3417530,NA,"complete",NA,"5f7771cc500fed151d125bbc","computer","Desktop or Laptop","Windows 10","Chrome 85.0.4183.121","1536x864","1536x754","DiagramNoFeedback","DiagramNoFeedback","DiagramNoFeedback",8,"1",4,"OwnDiagram","Zone1","continue_button",138278.52,NA,NA,"",NA,"BotoxDiagramNoFeedback",NA
"36",1601664159511,2,"02/10/2020 20:42:39","BLIND",3417530,NA,"complete",NA,"5f7771cc500fed151d125bbc","computer","Desktop or Laptop","Windows 10","Chrome 85.0.4183.121","1536x864","1536x754","DiagramNoFeedback","DiagramNoFeedback","DiagramNoFeedback",8,"1",5,"JoL2","Two","response_button_text",138278.52,NA,NA,"1",1,"BotoxDiagramNoFeedback",NA
"37",1601664160763,2,"02/10/2020 20:42:40","BLIND",3417530,NA,"complete",NA,"5f7771cc500fed151d125bbc","computer","Desktop or Laptop","Windows 10","Chrome 85.0.4183.121","1536x864","1536x754","DiagramNoFeedback","DiagramNoFeedback","DiagramNoFeedback",8,"1",6,"InstructieToets","advancementZone","continue_button",138278.52,NA,NA,"",NA,"BotoxDiagramNoFeedback",NA
"38",1601664189829,2,"02/10/2020 20:43:09","BLIND",3417530,NA,"complete",NA,"5f7771cc500fed151d125bbc","computer","Desktop or Laptop","Windows 10","Chrome 85.0.4183.121","1536x864","1536x754","DiagramNoFeedback","DiagramNoFeedback","DiagramNoFeedback",8,"1",7,"Test","buttonA","response_text_area",138278.52,NA,NA,"Atyj4AM",NA,"BotoxDiagramNoFeedback",NA
"39",1601664189831,2,"02/10/2020 20:43:09","BLIND",3417530,NA,"complete",NA,"5f7771cc500fed151d125bbc","computer","Desktop or Laptop","Windows 10","Chrome 85.0.4183.121","1536x864","1536x754","DiagramNoFeedback","DiagramNoFeedback","DiagramNoFeedback",8,"1",7,"Test","buttonB","continue_button",138278.52,NA,NA,"",NA,"BotoxDiagramNoFeedback",NA
"4",1601663732194,2,"02/10/2020 20:35:32","BLIND",3417530,NA,"complete",NA,"5f7771cc500fed151d125bbc","computer","Desktop or Laptop","Windows 10","Chrome 85.0.4183.121","1536x864","1536x754","DiagramNoFeedback","DiagramNoFeedback","DiagramNoFeedback",1,"1",3,"Diagram","DiagBox1","response_text_area",138278.52,NA,NA,"BshR",NA,"SportenDiagramNoFeedback",NA
"40",1601664191190,2,"02/10/2020 20:43:11","BLIND",3417530,NA,"complete",NA,"5f7771cc500fed151d125bbc","computer","Desktop or Laptop","Windows 10","Chrome 85.0.4183.121","1536x864","1536x754","DiagramNoFeedback","DiagramNoFeedback","DiagramNoFeedback",5,"2",1,"Screen 1","advancementZone","continue_button",138278.52,NA,NA,"",NA,"ReadyForNextTextScreen",NA
"41",1601664231049,2,"02/10/2020 20:43:51","BLIND",3417530,NA,"complete",NA,"5f7771cc500fed151d125bbc","computer","Desktop or Laptop","Windows 10","Chrome 85.0.4183.121","1536x864","1536x754","DiagramNoFeedback","DiagramNoFeedback","DiagramNoFeedback",6,"1",1,"Text","advancementZone","continue_button",138278.52,NA,NA,"",NA,"SuezDiagramNoFeedback",NA
"42",1601664232425,2,"02/10/2020 20:43:52","BLIND",3417530,NA,"complete",NA,"5f7771cc500fed151d125bbc","computer","Desktop or Laptop","Windows 10","Chrome 85.0.4183.121","1536x864","1536x754","DiagramNoFeedback","DiagramNoFeedback","DiagramNoFeedback",6,"1",2,"JoL1","Two","response_button_text",138278.52,NA,NA,"1",1,"SuezDiagramNoFeedback",NA
"43",1601664271432,2,"02/10/2020 20:44:31","BLIND",3417530,NA,"complete",NA,"5f7771cc500fed151d125bbc","computer","Desktop or Laptop","Windows 10","Chrome 85.0.4183.121","1536x864","1536x754","DiagramNoFeedback","DiagramNoFeedback","DiagramNoFeedback",6,"1",3,"Diagram","DiagBox2","response_text_area",138278.52,NA,NA,"uJS",NA,"SuezDiagramNoFeedback",NA
"44",1601664271435,2,"02/10/2020 20:44:31","BLIND",3417530,NA,"complete",NA,"5f7771cc500fed151d125bbc","computer","Desktop or Laptop","Windows 10","Chrome 85.0.4183.121","1536x864","1536x754","DiagramNoFeedback","DiagramNoFeedback","DiagramNoFeedback",6,"1",3,"Diagram","DiagBox3","response_text_area",138278.52,NA,NA,"qX2JI",NA,"SuezDiagramNoFeedback",NA
"45",1601664271435,2,"02/10/2020 20:44:31","BLIND",3417530,NA,"complete",NA,"5f7771cc500fed151d125bbc","computer","Desktop or Laptop","Windows 10","Chrome 85.0.4183.121","1536x864","1536x754","DiagramNoFeedback","DiagramNoFeedback","DiagramNoFeedback",6,"1",3,"Diagram","DiagBox4","response_text_area",138278.52,NA,NA,"jHby6h",NA,"SuezDiagramNoFeedback",NA
"46",1601664271435,2,"02/10/2020 20:44:31","BLIND",3417530,NA,"complete",NA,"5f7771cc500fed151d125bbc","computer","Desktop or Laptop","Windows 10","Chrome 85.0.4183.121","1536x864","1536x754","DiagramNoFeedback","DiagramNoFeedback","DiagramNoFeedback",6,"1",3,"Diagram","DiagBox1","response_text_area",138278.52,NA,NA,"xeZAv",NA,"SuezDiagramNoFeedback",NA
"47",1601664271435,2,"02/10/2020 20:44:31","BLIND",3417530,NA,"complete",NA,"5f7771cc500fed151d125bbc","computer","Desktop or Laptop","Windows 10","Chrome 85.0.4183.121","1536x864","1536x754","DiagramNoFeedback","DiagramNoFeedback","DiagramNoFeedback",6,"1",3,"Diagram","Zone1","continue_button",138278.52,NA,NA,"",NA,"SuezDiagramNoFeedback",NA
"48",1601664272757,2,"02/10/2020 20:44:32","BLIND",3417530,NA,"complete",NA,"5f7771cc500fed151d125bbc","computer","Desktop or Laptop","Windows 10","Chrome 85.0.4183.121","1536x864","1536x754","DiagramNoFeedback","DiagramNoFeedback","DiagramNoFeedback",6,"1",4,"OwnDiagram","Zone1","continue_button",138278.52,NA,NA,"",NA,"SuezDiagramNoFeedback",NA
"49",1601664275245,2,"02/10/2020 20:44:35","BLIND",3417530,NA,"complete",NA,"5f7771cc500fed151d125bbc","computer","Desktop or Laptop","Windows 10","Chrome 85.0.4183.121","1536x864","1536x754","DiagramNoFeedback","DiagramNoFeedback","DiagramNoFeedback",6,"1",5,"JoL2","One","response_button_text",138278.52,NA,NA,"1",1,"SuezDiagramNoFeedback",NA
"5",1601663732196,2,"02/10/2020 20:35:32","BLIND",3417530,NA,"complete",NA,"5f7771cc500fed151d125bbc","computer","Desktop or Laptop","Windows 10","Chrome 85.0.4183.121","1536x864","1536x754","DiagramNoFeedback","DiagramNoFeedback","DiagramNoFeedback",1,"1",3,"Diagram","DiagBox2","response_text_area",138278.52,NA,NA,"oh",NA,"SportenDiagramNoFeedback",NA
"50",1601664277060,2,"02/10/2020 20:44:37","BLIND",3417530,NA,"complete",NA,"5f7771cc500fed151d125bbc","computer","Desktop or Laptop","Windows 10","Chrome 85.0.4183.121","1536x864","1536x754","DiagramNoFeedback","DiagramNoFeedback","DiagramNoFeedback",6,"1",6,"InstructieToets","advancementZone","continue_button",138278.52,NA,NA,"",NA,"SuezDiagramNoFeedback",NA
"51",1601664292866,2,"02/10/2020 20:44:52","BLIND",3417530,NA,"complete",NA,"5f7771cc500fed151d125bbc","computer","Desktop or Laptop","Windows 10","Chrome 85.0.4183.121","1536x864","1536x754","DiagramNoFeedback","DiagramNoFeedback","DiagramNoFeedback",6,"1",7,"Test","buttonA","response_text_area",138278.52,NA,NA,"6SN8uW",NA,"SuezDiagramNoFeedback",NA
"52",1601664292868,2,"02/10/2020 20:44:52","BLIND",3417530,NA,"complete",NA,"5f7771cc500fed151d125bbc","computer","Desktop or Laptop","Windows 10","Chrome 85.0.4183.121","1536x864","1536x754","DiagramNoFeedback","DiagramNoFeedback","DiagramNoFeedback",6,"1",7,"Test","buttonB","continue_button",138278.52,NA,NA,"",NA,"SuezDiagramNoFeedback",NA
"53",1601665424799,2,"02/10/2020 21:03:44","BLIND",3417530,NA,"complete",NA,"5f7771cc500fed151d125bbc","computer","Desktop or Laptop","Windows 10","Chrome 85.0.4183.121","1536x864","1536x754","DiagramNoFeedback","DiagramNoFeedback","DiagramNoFeedback",7,"3",1,"Screen 1","advancementZone","continue_button",138278.52,NA,NA,"",NA,"ReadyForNextTextScreen",NA
"54",1601665538581,2,"02/10/2020 21:05:38","BLIND",3417530,NA,"complete",NA,"5f7771cc500fed151d125bbc","computer","Desktop or Laptop","Windows 10","Chrome 85.0.4183.121","1536x864","1536x754","DiagramNoFeedback","DiagramNoFeedback","DiagramNoFeedback",2,"1",1,"Text","advancementZone","continue_button",138278.52,NA,NA,"",NA,"MetroDiagramNoFeedback",NA
"55",1601665541211,2,"02/10/2020 21:05:41","BLIND",3417530,NA,"complete",NA,"5f7771cc500fed151d125bbc","computer","Desktop or Laptop","Windows 10","Chrome 85.0.4183.121","1536x864","1536x754","DiagramNoFeedback","DiagramNoFeedback","DiagramNoFeedback",2,"1",2,"JoL1","One","response_button_text",138278.52,NA,NA,"1",1,"MetroDiagramNoFeedback",NA
"56",1601665571287,2,"02/10/2020 21:06:11","BLIND",3417530,NA,"complete",NA,"5f7771cc500fed151d125bbc","computer","Desktop or Laptop","Windows 10","Chrome 85.0.4183.121","1536x864","1536x754","DiagramNoFeedback","DiagramNoFeedback","DiagramNoFeedback",2,"1",3,"Diagram","DiagBox1","response_text_area",138278.52,NA,NA,"hfggxMD",NA,"MetroDiagramNoFeedback",NA
"57",1601665571290,2,"02/10/2020 21:06:11","BLIND",3417530,NA,"complete",NA,"5f7771cc500fed151d125bbc","computer","Desktop or Laptop","Windows 10","Chrome 85.0.4183.121","1536x864","1536x754","DiagramNoFeedback","DiagramNoFeedback","DiagramNoFeedback",2,"1",3,"Diagram","DiagBox3","response_text_area",138278.52,NA,NA,"gh2s8Q2",NA,"MetroDiagramNoFeedback",NA
"58",1601665571290,2,"02/10/2020 21:06:11","BLIND",3417530,NA,"complete",NA,"5f7771cc500fed151d125bbc","computer","Desktop or Laptop","Windows 10","Chrome 85.0.4183.121","1536x864","1536x754","DiagramNoFeedback","DiagramNoFeedback","DiagramNoFeedback",2,"1",3,"Diagram","DiagBox4","response_text_area",138278.52,NA,NA,"epkhmj",NA,"MetroDiagramNoFeedback",NA
"59",1601665571290,2,"02/10/2020 21:06:11","BLIND",3417530,NA,"complete",NA,"5f7771cc500fed151d125bbc","computer","Desktop or Laptop","Windows 10","Chrome 85.0.4183.121","1536x864","1536x754","DiagramNoFeedback","DiagramNoFeedback","DiagramNoFeedback",2,"1",3,"Diagram","DiagBox2","response_text_area",138278.52,NA,NA,"gTcb7QN",NA,"MetroDiagramNoFeedback",NA
"6",1601663732196,2,"02/10/2020 20:35:32","BLIND",3417530,NA,"complete",NA,"5f7771cc500fed151d125bbc","computer","Desktop or Laptop","Windows 10","Chrome 85.0.4183.121","1536x864","1536x754","DiagramNoFeedback","DiagramNoFeedback","DiagramNoFeedback",1,"1",3,"Diagram","DiagBox3","response_text_area",138278.52,NA,NA,"SNAPmkuVa",NA,"SportenDiagramNoFeedback",NA
"60",1601665571290,2,"02/10/2020 21:06:11","BLIND",3417530,NA,"complete",NA,"5f7771cc500fed151d125bbc","computer","Desktop or Laptop","Windows 10","Chrome 85.0.4183.121","1536x864","1536x754","DiagramNoFeedback","DiagramNoFeedback","DiagramNoFeedback",2,"1",3,"Diagram","Zone3","continue_button",138278.52,NA,NA,"",NA,"MetroDiagramNoFeedback",NA
"61",1601665572427,2,"02/10/2020 21:06:12","BLIND",3417530,NA,"complete",NA,"5f7771cc500fed151d125bbc","computer","Desktop or Laptop","Windows 10","Chrome 85.0.4183.121","1536x864","1536x754","DiagramNoFeedback","DiagramNoFeedback","DiagramNoFeedback",2,"1",4,"OwnDiagramDis","Zone3","continue_button",138278.52,NA,NA,"",NA,"MetroDiagramNoFeedback",NA
"62",1601665573884,2,"02/10/2020 21:06:13","BLIND",3417530,NA,"complete",NA,"5f7771cc500fed151d125bbc","computer","Desktop or Laptop","Windows 10","Chrome 85.0.4183.121","1536x864","1536x754","DiagramNoFeedback","DiagramNoFeedback","DiagramNoFeedback",2,"1",5,"JoL2","Null","response_button_text",138278.52,NA,NA,"1",1,"MetroDiagramNoFeedback",NA
"63",1601665575874,2,"02/10/2020 21:06:15","BLIND",3417530,NA,"complete",NA,"5f7771cc500fed151d125bbc","computer","Desktop or Laptop","Windows 10","Chrome 85.0.4183.121","1536x864","1536x754","DiagramNoFeedback","DiagramNoFeedback","DiagramNoFeedback",2,"1",6,"InstructieToets","advancementZone","continue_button",138278.52,NA,NA,"",NA,"MetroDiagramNoFeedback",NA
"64",1601665595570,2,"02/10/2020 21:06:35","BLIND",3417530,NA,"complete",NA,"5f7771cc500fed151d125bbc","computer","Desktop or Laptop","Windows 10","Chrome 85.0.4183.121","1536x864","1536x754","DiagramNoFeedback","DiagramNoFeedback","DiagramNoFeedback",2,"1",7,"Test","buttonA","response_text_area",138278.52,NA,NA,"66ePg",NA,"MetroDiagramNoFeedback",NA
"65",1601665595572,2,"02/10/2020 21:06:35","BLIND",3417530,NA,"complete",NA,"5f7771cc500fed151d125bbc","computer","Desktop or Laptop","Windows 10","Chrome 85.0.4183.121","1536x864","1536x754","DiagramNoFeedback","DiagramNoFeedback","DiagramNoFeedback",2,"1",7,"Test","buttonB","continue_button",138278.52,NA,NA,"",NA,"MetroDiagramNoFeedback",NA
"66",1601665596909,2,"02/10/2020 21:06:36","BLIND",3417530,NA,"complete",NA,"5f7771cc500fed151d125bbc","computer","Desktop or Laptop","Windows 10","Chrome 85.0.4183.121","1536x864","1536x754","DiagramNoFeedback","DiagramNoFeedback","DiagramNoFeedback",9,"4",1,"Screen 1","advancementZone","continue_button",138278.52,NA,NA,"",NA,"ReadyForNextTextScreen",NA
"67",1601665659319,2,"02/10/2020 21:07:39","BLIND",3417530,NA,"complete",NA,"5f7771cc500fed151d125bbc","computer","Desktop or Laptop","Windows 10","Chrome 85.0.4183.121","1536x864","1536x754","DiagramNoFeedback","DiagramNoFeedback","DiagramNoFeedback",10,"1",1,"Text","advancementZone","continue_button",138278.52,NA,NA,"",NA,"MuziekDiagramNoFeedback",NA
"68",1601665661018,2,"02/10/2020 21:07:41","BLIND",3417530,NA,"complete",NA,"5f7771cc500fed151d125bbc","computer","Desktop or Laptop","Windows 10","Chrome 85.0.4183.121","1536x864","1536x754","DiagramNoFeedback","DiagramNoFeedback","DiagramNoFeedback",10,"1",2,"JoL1","Two","response_button_text",138278.52,NA,NA,"1",1,"MuziekDiagramNoFeedback",NA
"69",1601665688203,2,"02/10/2020 21:08:08","BLIND",3417530,NA,"complete",NA,"5f7771cc500fed151d125bbc","computer","Desktop or Laptop","Windows 10","Chrome 85.0.4183.121","1536x864","1536x754","DiagramNoFeedback","DiagramNoFeedback","DiagramNoFeedback",10,"1",3,"Diagram","DiagBox1","response_text_area",138278.52,NA,NA,"KDwjYSGS7",NA,"MuziekDiagramNoFeedback",NA
"7",1601663732197,2,"02/10/2020 20:35:32","BLIND",3417530,NA,"complete",NA,"5f7771cc500fed151d125bbc","computer","Desktop or Laptop","Windows 10","Chrome 85.0.4183.121","1536x864","1536x754","DiagramNoFeedback","DiagramNoFeedback","DiagramNoFeedback",1,"1",3,"Diagram","DiagBox4","response_text_area",138278.52,NA,NA,"J1W7y",NA,"SportenDiagramNoFeedback",NA
"70",1601665688205,2,"02/10/2020 21:08:08","BLIND",3417530,NA,"complete",NA,"5f7771cc500fed151d125bbc","computer","Desktop or Laptop","Windows 10","Chrome 85.0.4183.121","1536x864","1536x754","DiagramNoFeedback","DiagramNoFeedback","DiagramNoFeedback",10,"1",3,"Diagram","DiagBox2","response_text_area",138278.52,NA,NA,"opHw",NA,"MuziekDiagramNoFeedback",NA
"71",1601665688206,2,"02/10/2020 21:08:08","BLIND",3417530,NA,"complete",NA,"5f7771cc500fed151d125bbc","computer","Desktop or Laptop","Windows 10","Chrome 85.0.4183.121","1536x864","1536x754","DiagramNoFeedback","DiagramNoFeedback","DiagramNoFeedback",10,"1",3,"Diagram","DiagBox3","response_text_area",138278.52,NA,NA,"15Z",NA,"MuziekDiagramNoFeedback",NA
"72",1601665688206,2,"02/10/2020 21:08:08","BLIND",3417530,NA,"complete",NA,"5f7771cc500fed151d125bbc","computer","Desktop or Laptop","Windows 10","Chrome 85.0.4183.121","1536x864","1536x754","DiagramNoFeedback","DiagramNoFeedback","DiagramNoFeedback",10,"1",3,"Diagram","DiagBox4","response_text_area",138278.52,NA,NA,"hiQd",NA,"MuziekDiagramNoFeedback",NA
"73",1601665688206,2,"02/10/2020 21:08:08","BLIND",3417530,NA,"complete",NA,"5f7771cc500fed151d125bbc","computer","Desktop or Laptop","Windows 10","Chrome 85.0.4183.121","1536x864","1536x754","DiagramNoFeedback","DiagramNoFeedback","DiagramNoFeedback",10,"1",3,"Diagram","Zone1","continue_button",138278.52,NA,NA,"",NA,"MuziekDiagramNoFeedback",NA
"74",1601665689820,2,"02/10/2020 21:08:09","BLIND",3417530,NA,"complete",NA,"5f7771cc500fed151d125bbc","computer","Desktop or Laptop","Windows 10","Chrome 85.0.4183.121","1536x864","1536x754","DiagramNoFeedback","DiagramNoFeedback","DiagramNoFeedback",10,"1",4,"OwnDiagram","Zone1","continue_button",138278.52,NA,NA,"",NA,"MuziekDiagramNoFeedback",NA
"75",1601665692638,2,"02/10/2020 21:08:12","BLIND",3417530,NA,"complete",NA,"5f7771cc500fed151d125bbc","computer","Desktop or Laptop","Windows 10","Chrome 85.0.4183.121","1536x864","1536x754","DiagramNoFeedback","DiagramNoFeedback","DiagramNoFeedback",10,"1",5,"JoL2","Three","response_button_text",138278.52,NA,NA,"1",1,"MuziekDiagramNoFeedback",NA
"76",1601665705030,2,"02/10/2020 21:08:25","BLIND",3417530,NA,"complete",NA,"5f7771cc500fed151d125bbc","computer","Desktop or Laptop","Windows 10","Chrome 85.0.4183.121","1536x864","1536x754","DiagramNoFeedback","DiagramNoFeedback","DiagramNoFeedback",10,"1",6,"InstructieToets","advancementZone","continue_button",138278.52,NA,NA,"",NA,"MuziekDiagramNoFeedback",NA
"77",1601665728201,2,"02/10/2020 21:08:48","BLIND",3417530,NA,"complete",NA,"5f7771cc500fed151d125bbc","computer","Desktop or Laptop","Windows 10","Chrome 85.0.4183.121","1536x864","1536x754","DiagramNoFeedback","DiagramNoFeedback","DiagramNoFeedback",10,"1",7,"Test","buttonA","response_text_area",138278.52,NA,NA,"Qyb0",NA,"MuziekDiagramNoFeedback",NA
"78",1601665728203,2,"02/10/2020 21:08:48","BLIND",3417530,NA,"complete",NA,"5f7771cc500fed151d125bbc","computer","Desktop or Laptop","Windows 10","Chrome 85.0.4183.121","1536x864","1536x754","DiagramNoFeedback","DiagramNoFeedback","DiagramNoFeedback",10,"1",7,"Test","buttonB","continue_button",138278.52,NA,NA,"",NA,"MuziekDiagramNoFeedback",NA
"79",1601665729570,2,"02/10/2020 21:08:49","BLIND",3417530,NA,"complete",NA,"5f7771cc500fed151d125bbc","computer","Desktop or Laptop","Windows 10","Chrome 85.0.4183.121","1536x864","1536x754","DiagramNoFeedback","DiagramNoFeedback","DiagramNoFeedback",11,"5",1,"Screen 1","advancementZone","continue_button",138278.52,NA,NA,"",NA,"ReadyForNextTextScreen",NA
"8",1601663732197,2,"02/10/2020 20:35:32","BLIND",3417530,NA,"complete",NA,"5f7771cc500fed151d125bbc","computer","Desktop or Laptop","Windows 10","Chrome 85.0.4183.121","1536x864","1536x754","DiagramNoFeedback","DiagramNoFeedback","DiagramNoFeedback",1,"1",3,"Diagram","Zone1","continue_button",138278.52,NA,NA,"",NA,"SportenDiagramNoFeedback",NA
"80",1601665795593,2,"02/10/2020 21:09:55","BLIND",3417530,NA,"complete",NA,"5f7771cc500fed151d125bbc","computer","Desktop or Laptop","Windows 10","Chrome 85.0.4183.121","1536x864","1536x754","DiagramNoFeedback","DiagramNoFeedback","DiagramNoFeedback",4,"1",1,"Text","advancementZone","continue_button",138278.52,NA,NA,"",NA,"BetonDiagramNoFeedback",NA
"81",1601665797204,2,"02/10/2020 21:09:57","BLIND",3417530,NA,"complete",NA,"5f7771cc500fed151d125bbc","computer","Desktop or Laptop","Windows 10","Chrome 85.0.4183.121","1536x864","1536x754","DiagramNoFeedback","DiagramNoFeedback","DiagramNoFeedback",4,"1",2,"JoL1","Two","response_button_text",138278.52,NA,NA,"1",1,"BetonDiagramNoFeedback",NA
"82",1601665868741,2,"02/10/2020 21:11:08","BLIND",3417530,NA,"complete",NA,"5f7771cc500fed151d125bbc","computer","Desktop or Laptop","Windows 10","Chrome 85.0.4183.121","1536x864","1536x754","DiagramNoFeedback","DiagramNoFeedback","DiagramNoFeedback",4,"1",3,"Diagram","DiagBox2","response_text_area",138278.52,NA,NA,"6KTw",NA,"BetonDiagramNoFeedback",NA
"83",1601665868743,2,"02/10/2020 21:11:08","BLIND",3417530,NA,"complete",NA,"5f7771cc500fed151d125bbc","computer","Desktop or Laptop","Windows 10","Chrome 85.0.4183.121","1536x864","1536x754","DiagramNoFeedback","DiagramNoFeedback","DiagramNoFeedback",4,"1",3,"Diagram","DiagBox3","response_text_area",138278.52,NA,NA,"JjmSbfiDXG",NA,"BetonDiagramNoFeedback",NA
"84",1601665868744,2,"02/10/2020 21:11:08","BLIND",3417530,NA,"complete",NA,"5f7771cc500fed151d125bbc","computer","Desktop or Laptop","Windows 10","Chrome 85.0.4183.121","1536x864","1536x754","DiagramNoFeedback","DiagramNoFeedback","DiagramNoFeedback",4,"1",3,"Diagram","DiagBox4","response_text_area",138278.52,NA,NA,"5eij",NA,"BetonDiagramNoFeedback",NA
"85",1601665868744,2,"02/10/2020 21:11:08","BLIND",3417530,NA,"complete",NA,"5f7771cc500fed151d125bbc","computer","Desktop or Laptop","Windows 10","Chrome 85.0.4183.121","1536x864","1536x754","DiagramNoFeedback","DiagramNoFeedback","DiagramNoFeedback",4,"1",3,"Diagram","DiagBox1","response_text_area",138278.52,NA,NA,"HZqE8w4b",NA,"BetonDiagramNoFeedback",NA
"86",1601665868744,2,"02/10/2020 21:11:08","BLIND",3417530,NA,"complete",NA,"5f7771cc500fed151d125bbc","computer","Desktop or Laptop","Windows 10","Chrome 85.0.4183.121","1536x864","1536x754","DiagramNoFeedback","DiagramNoFeedback","DiagramNoFeedback",4,"1",3,"Diagram","Zone1","continue_button",138278.52,NA,NA,"",NA,"BetonDiagramNoFeedback",NA
"87",1601665870284,2,"02/10/2020 21:11:10","BLIND",3417530,NA,"complete",NA,"5f7771cc500fed151d125bbc","computer","Desktop or Laptop","Windows 10","Chrome 85.0.4183.121","1536x864","1536x754","DiagramNoFeedback","DiagramNoFeedback","DiagramNoFeedback",4,"1",4,"OwnDiagram","Zone1","continue_button",138278.52,NA,NA,"",NA,"BetonDiagramNoFeedback",NA
"88",1601665871550,2,"02/10/2020 21:11:11","BLIND",3417530,NA,"complete",NA,"5f7771cc500fed151d125bbc","computer","Desktop or Laptop","Windows 10","Chrome 85.0.4183.121","1536x864","1536x754","DiagramNoFeedback","DiagramNoFeedback","DiagramNoFeedback",4,"1",5,"JoL2","Three","response_button_text",138278.52,NA,NA,"1",1,"BetonDiagramNoFeedback",NA
"89",1601665873248,2,"02/10/2020 21:11:13","BLIND",3417530,NA,"complete",NA,"5f7771cc500fed151d125bbc","computer","Desktop or Laptop","Windows 10","Chrome 85.0.4183.121","1536x864","1536x754","DiagramNoFeedback","DiagramNoFeedback","DiagramNoFeedback",4,"1",6,"InstructieToets","advancementZone","continue_button",138278.52,NA,NA,"",NA,"BetonDiagramNoFeedback",NA
"9",1601663736655,2,"02/10/2020 20:35:36","BLIND",3417530,NA,"complete",NA,"5f7771cc500fed151d125bbc","computer","Desktop or Laptop","Windows 10","Chrome 85.0.4183.121","1536x864","1536x754","DiagramNoFeedback","DiagramNoFeedback","DiagramNoFeedback",1,"1",4,"OwnDiagram","Zone1","continue_button",138278.52,NA,NA,"",NA,"SportenDiagramNoFeedback",NA
"90",1601665898153,2,"02/10/2020 21:11:38","BLIND",3417530,NA,"complete",NA,"5f7771cc500fed151d125bbc","computer","Desktop or Laptop","Windows 10","Chrome 85.0.4183.121","1536x864","1536x754","DiagramNoFeedback","DiagramNoFeedback","DiagramNoFeedback",4,"1",7,"Test","buttonA","response_text_area",138278.52,NA,NA,"cszrgtdFy",NA,"BetonDiagramNoFeedback",NA
"91",1601665898155,2,"02/10/2020 21:11:38","BLIND",3417530,NA,"complete",NA,"5f7771cc500fed151d125bbc","computer","Desktop or Laptop","Windows 10","Chrome 85.0.4183.121","1536x864","1536x754","DiagramNoFeedback","DiagramNoFeedback","DiagramNoFeedback",4,"1",7,"Test","buttonB","continue_button",138278.52,NA,NA,"",NA,"BetonDiagramNoFeedback",NA
"92",1601665898159,2,"02/10/2020 21:11:38","BLIND",3417530,NA,"complete",NA,"5f7771cc500fed151d125bbc","computer","Desktop or Laptop","Windows 10","Chrome 85.0.4183.121","1536x864","1536x754","DiagramNoFeedback","DiagramNoFeedback","",NA,"END TASK",NA,"","","",2238000,NA,NA,"",NA,"",NA
"1",1601664009675,2,"02/10/2020 20:40:09","BLIND",9627535,NA,"complete",NA,"5f77727b54feeb2b8dd5f06f","computer","Desktop or Laptop","Mac OS 10.15.3","Safari 13.0.5","1280x800","1280x663","DiagramNoFeedback","DiagramNoFeedback","",NA,"BEGIN TASK",NA,"","","",NA,NA,NA,"",NA,"",NA
"10",1601664182965,2,"02/10/2020 20:43:02","BLIND",9627535,NA,"complete",NA,"5f77727b54feeb2b8dd5f06f","computer","Desktop or Laptop","Mac OS 10.15.3","Safari 13.0.5","1280x800","1280x663","DiagramNoFeedback","DiagramNoFeedback","DiagramNoFeedback",1,"1",5,"JoL2","Three","response_button_text",138278.52,NA,NA,"1",1,"SportenDiagramNoFeedback",NA
"11",1601664185006,2,"02/10/2020 20:43:05","BLIND",9627535,NA,"complete",NA,"5f77727b54feeb2b8dd5f06f","computer","Desktop or Laptop","Mac OS 10.15.3","Safari 13.0.5","1280x800","1280x663","DiagramNoFeedback","DiagramNoFeedback","DiagramNoFeedback",1,"1",6,"InstructieToets","advancementZone","continue_button",138278.52,NA,NA,"",NA,"SportenDiagramNoFeedback",NA
"12",1601664273050,2,"02/10/2020 20:44:33","BLIND",9627535,NA,"complete",NA,"5f77727b54feeb2b8dd5f06f","computer","Desktop or Laptop","Mac OS 10.15.3","Safari 13.0.5","1280x800","1280x663","DiagramNoFeedback","DiagramNoFeedback","DiagramNoFeedback",1,"1",7,"Test","buttonA","response_text_area",138278.52,NA,NA,"G53kmwjGn4",NA,"SportenDiagramNoFeedback",NA
"13",1601664273051,2,"02/10/2020 20:44:33","BLIND",9627535,NA,"complete",NA,"5f77727b54feeb2b8dd5f06f","computer","Desktop or Laptop","Mac OS 10.15.3","Safari 13.0.5","1280x800","1280x663","DiagramNoFeedback","DiagramNoFeedback","DiagramNoFeedback",1,"1",7,"Test","buttonB","continue_button",138278.52,NA,NA,"",NA,"SportenDiagramNoFeedback",NA
"14",1601664275722,2,"02/10/2020 20:44:35","BLIND",9627535,NA,"complete",NA,"5f77727b54feeb2b8dd5f06f","computer","Desktop or Laptop","Mac OS 10.15.3","Safari 13.0.5","1280x800","1280x663","DiagramNoFeedback","DiagramNoFeedback","DiagramNoFeedback",1,"1",8,"Klaar4Experiment","advancementZone","continue_button",138278.52,NA,NA,"",NA,"SportenDiagramNoFeedback",NA
"15",1601664373237,2,"02/10/2020 20:46:13","BLIND",9627535,NA,"complete",NA,"5f77727b54feeb2b8dd5f06f","computer","Desktop or Laptop","Mac OS 10.15.3","Safari 13.0.5","1280x800","1280x663","DiagramNoFeedback","DiagramNoFeedback","DiagramNoFeedback",10,"1",1,"Text","advancementZone","continue_button",138278.52,NA,NA,"",NA,"MuziekDiagramNoFeedback",NA
"16",1601664375156,2,"02/10/2020 20:46:15","BLIND",9627535,NA,"complete",NA,"5f77727b54feeb2b8dd5f06f","computer","Desktop or Laptop","Mac OS 10.15.3","Safari 13.0.5","1280x800","1280x663","DiagramNoFeedback","DiagramNoFeedback","DiagramNoFeedback",10,"1",2,"JoL1","Three","response_button_text",138278.52,NA,NA,"1",1,"MuziekDiagramNoFeedback",NA
"17",1601664510355,2,"02/10/2020 20:48:30","BLIND",9627535,NA,"complete",NA,"5f77727b54feeb2b8dd5f06f","computer","Desktop or Laptop","Mac OS 10.15.3","Safari 13.0.5","1280x800","1280x663","DiagramNoFeedback","DiagramNoFeedback","DiagramNoFeedback",10,"1",3,"Diagram","DiagBox1","response_text_area",138278.52,NA,NA,"KdC42ICD",NA,"MuziekDiagramNoFeedback",NA
"18",1601664510357,2,"02/10/2020 20:48:30","BLIND",9627535,NA,"complete",NA,"5f77727b54feeb2b8dd5f06f","computer","Desktop or Laptop","Mac OS 10.15.3","Safari 13.0.5","1280x800","1280x663","DiagramNoFeedback","DiagramNoFeedback","DiagramNoFeedback",10,"1",3,"Diagram","DiagBox2","response_text_area",138278.52,NA,NA,"4AbRpav",NA,"MuziekDiagramNoFeedback",NA
"19",1601664510357,2,"02/10/2020 20:48:30","BLIND",9627535,NA,"complete",NA,"5f77727b54feeb2b8dd5f06f","computer","Desktop or Laptop","Mac OS 10.15.3","Safari 13.0.5","1280x800","1280x663","DiagramNoFeedback","DiagramNoFeedback","DiagramNoFeedback",10,"1",3,"Diagram","DiagBox3","response_text_area",138278.52,NA,NA,"EbKC6",NA,"MuziekDiagramNoFeedback",NA
"2",1601664058858,2,"02/10/2020 20:40:58","BLIND",9627535,NA,"complete",NA,"5f77727b54feeb2b8dd5f06f","computer","Desktop or Laptop","Mac OS 10.15.3","Safari 13.0.5","1280x800","1280x663","DiagramNoFeedback","DiagramNoFeedback","DiagramNoFeedback",1,"1",1,"Text","advancementZone","continue_button",138278.52,NA,NA,"",NA,"SportenDiagramNoFeedback",NA
"20",1601664510357,2,"02/10/2020 20:48:30","BLIND",9627535,NA,"complete",NA,"5f77727b54feeb2b8dd5f06f","computer","Desktop or Laptop","Mac OS 10.15.3","Safari 13.0.5","1280x800","1280x663","DiagramNoFeedback","DiagramNoFeedback","DiagramNoFeedback",10,"1",3,"Diagram","DiagBox4","response_text_area",138278.52,NA,NA,"PQ",NA,"MuziekDiagramNoFeedback",NA
"21",1601664510357,2,"02/10/2020 20:48:30","BLIND",9627535,NA,"complete",NA,"5f77727b54feeb2b8dd5f06f","computer","Desktop or Laptop","Mac OS 10.15.3","Safari 13.0.5","1280x800","1280x663","DiagramNoFeedback","DiagramNoFeedback","DiagramNoFeedback",10,"1",3,"Diagram","Zone1","continue_button",138278.52,NA,NA,"",NA,"MuziekDiagramNoFeedback",NA
"22",1601664528263,2,"02/10/2020 20:48:48","BLIND",9627535,NA,"complete",NA,"5f77727b54feeb2b8dd5f06f","computer","Desktop or Laptop","Mac OS 10.15.3","Safari 13.0.5","1280x800","1280x663","DiagramNoFeedback","DiagramNoFeedback","DiagramNoFeedback",10,"1",4,"OwnDiagram","Zone1","continue_button",138278.52,NA,NA,"",NA,"MuziekDiagramNoFeedback",NA
"23",1601664530226,2,"02/10/2020 20:48:50","BLIND",9627535,NA,"complete",NA,"5f77727b54feeb2b8dd5f06f","computer","Desktop or Laptop","Mac OS 10.15.3","Safari 13.0.5","1280x800","1280x663","DiagramNoFeedback","DiagramNoFeedback","DiagramNoFeedback",10,"1",5,"JoL2","Three","response_button_text",138278.52,NA,NA,"1",1,"MuziekDiagramNoFeedback",NA
"24",1601664531925,2,"02/10/2020 20:48:51","BLIND",9627535,NA,"complete",NA,"5f77727b54feeb2b8dd5f06f","computer","Desktop or Laptop","Mac OS 10.15.3","Safari 13.0.5","1280x800","1280x663","DiagramNoFeedback","DiagramNoFeedback","DiagramNoFeedback",10,"1",6,"InstructieToets","advancementZone","continue_button",138278.52,NA,NA,"",NA,"MuziekDiagramNoFeedback",NA
"25",1601664642357,2,"02/10/2020 20:50:42","BLIND",9627535,NA,"complete",NA,"5f77727b54feeb2b8dd5f06f","computer","Desktop or Laptop","Mac OS 10.15.3","Safari 13.0.5","1280x800","1280x663","DiagramNoFeedback","DiagramNoFeedback","DiagramNoFeedback",10,"1",7,"Test","buttonA","response_text_area",138278.52,NA,NA,"0B",NA,"MuziekDiagramNoFeedback",NA
"26",1601664642358,2,"02/10/2020 20:50:42","BLIND",9627535,NA,"complete",NA,"5f77727b54feeb2b8dd5f06f","computer","Desktop or Laptop","Mac OS 10.15.3","Safari 13.0.5","1280x800","1280x663","DiagramNoFeedback","DiagramNoFeedback","DiagramNoFeedback",10,"1",7,"Test","buttonB","continue_button",138278.52,NA,NA,"",NA,"MuziekDiagramNoFeedback",NA
"27",1601664645450,2,"02/10/2020 20:50:45","BLIND",9627535,NA,"complete",NA,"5f77727b54feeb2b8dd5f06f","computer","Desktop or Laptop","Mac OS 10.15.3","Safari 13.0.5","1280x800","1280x663","DiagramNoFeedback","DiagramNoFeedback","DiagramNoFeedback",3,"1",1,"Screen 1","advancementZone","continue_button",138278.52,NA,NA,"",NA,"ReadyForNextTextScreen",NA
"28",1601664746399,2,"02/10/2020 20:52:26","BLIND",9627535,NA,"complete",NA,"5f77727b54feeb2b8dd5f06f","computer","Desktop or Laptop","Mac OS 10.15.3","Safari 13.0.5","1280x800","1280x663","DiagramNoFeedback","DiagramNoFeedback","DiagramNoFeedback",12,"1",1,"Text","advancementZone","continue_button",138278.52,NA,NA,"",NA,"GeldDiagramNoFeedback",NA
"29",1601664748131,2,"02/10/2020 20:52:28","BLIND",9627535,NA,"complete",NA,"5f77727b54feeb2b8dd5f06f","computer","Desktop or Laptop","Mac OS 10.15.3","Safari 13.0.5","1280x800","1280x663","DiagramNoFeedback","DiagramNoFeedback","DiagramNoFeedback",12,"1",2,"JoL1","Three","response_button_text",138278.52,NA,NA,"1",1,"GeldDiagramNoFeedback",NA
"3",1601664061760,2,"02/10/2020 20:41:01","BLIND",9627535,NA,"complete",NA,"5f77727b54feeb2b8dd5f06f","computer","Desktop or Laptop","Mac OS 10.15.3","Safari 13.0.5","1280x800","1280x663","DiagramNoFeedback","DiagramNoFeedback","DiagramNoFeedback",1,"1",2,"JoL1","Three","response_button_text",138278.52,NA,NA,"1",1,"SportenDiagramNoFeedback",NA
"30",1601664930898,2,"02/10/2020 20:55:30","BLIND",9627535,NA,"complete",NA,"5f77727b54feeb2b8dd5f06f","computer","Desktop or Laptop","Mac OS 10.15.3","Safari 13.0.5","1280x800","1280x663","DiagramNoFeedback","DiagramNoFeedback","DiagramNoFeedback",12,"1",3,"Diagram","DiagBox2","response_text_area",138278.52,NA,NA,"?",NA,"GeldDiagramNoFeedback",NA
"31",1601664930900,2,"02/10/2020 20:55:30","BLIND",9627535,NA,"complete",NA,"5f77727b54feeb2b8dd5f06f","computer","Desktop or Laptop","Mac OS 10.15.3","Safari 13.0.5","1280x800","1280x663","DiagramNoFeedback","DiagramNoFeedback","DiagramNoFeedback",12,"1",3,"Diagram","DiagBox3","response_text_area",138278.52,NA,NA,"ap",NA,"GeldDiagramNoFeedback",NA
"32",1601664930900,2,"02/10/2020 20:55:30","BLIND",9627535,NA,"complete",NA,"5f77727b54feeb2b8dd5f06f","computer","Desktop or Laptop","Mac OS 10.15.3","Safari 13.0.5","1280x800","1280x663","DiagramNoFeedback","DiagramNoFeedback","DiagramNoFeedback",12,"1",3,"Diagram","DiagBox4","response_text_area",138278.52,NA,NA,"8K",NA,"GeldDiagramNoFeedback",NA
"33",1601664930900,2,"02/10/2020 20:55:30","BLIND",9627535,NA,"complete",NA,"5f77727b54feeb2b8dd5f06f","computer","Desktop or Laptop","Mac OS 10.15.3","Safari 13.0.5","1280x800","1280x663","DiagramNoFeedback","DiagramNoFeedback","DiagramNoFeedback",12,"1",3,"Diagram","DiagBox1","response_text_area",138278.52,NA,NA,"IIwTZNKZ",NA,"GeldDiagramNoFeedback",NA
"34",1601664930900,2,"02/10/2020 20:55:30","BLIND",9627535,NA,"complete",NA,"5f77727b54feeb2b8dd5f06f","computer","Desktop or Laptop","Mac OS 10.15.3","Safari 13.0.5","1280x800","1280x663","DiagramNoFeedback","DiagramNoFeedback","DiagramNoFeedback",12,"1",3,"Diagram","Zone1","continue_button",138278.52,NA,NA,"",NA,"GeldDiagramNoFeedback",NA
"35",1601664945639,2,"02/10/2020 20:55:45","BLIND",9627535,NA,"complete",NA,"5f77727b54feeb2b8dd5f06f","computer","Desktop or Laptop","Mac OS 10.15.3","Safari 13.0.5","1280x800","1280x663","DiagramNoFeedback","DiagramNoFeedback","DiagramNoFeedback",12,"1",4,"OwnDiagram","Zone1","continue_button",138278.52,NA,NA,"",NA,"GeldDiagramNoFeedback",NA
"36",1601664946814,2,"02/10/2020 20:55:46","BLIND",9627535,NA,"complete",NA,"5f77727b54feeb2b8dd5f06f","computer","Desktop or Laptop","Mac OS 10.15.3","Safari 13.0.5","1280x800","1280x663","DiagramNoFeedback","DiagramNoFeedback","DiagramNoFeedback",12,"1",5,"JoL2","Two","response_button_text",138278.52,NA,NA,"1",1,"GeldDiagramNoFeedback",NA
"37",1601664948383,2,"02/10/2020 20:55:48","BLIND",9627535,NA,"complete",NA,"5f77727b54feeb2b8dd5f06f","computer","Desktop or Laptop","Mac OS 10.15.3","Safari 13.0.5","1280x800","1280x663","DiagramNoFeedback","DiagramNoFeedback","DiagramNoFeedback",12,"1",6,"InstructieToets","advancementZone","continue_button",138278.52,NA,NA,"",NA,"GeldDiagramNoFeedback",NA
"38",1601665038081,2,"02/10/2020 20:57:18","BLIND",9627535,NA,"complete",NA,"5f77727b54feeb2b8dd5f06f","computer","Desktop or Laptop","Mac OS 10.15.3","Safari 13.0.5","1280x800","1280x663","DiagramNoFeedback","DiagramNoFeedback","DiagramNoFeedback",12,"1",7,"Test","buttonA","response_text_area",138278.52,NA,NA,"MwLLrhLs",NA,"GeldDiagramNoFeedback",NA
"39",1601665038083,2,"02/10/2020 20:57:18","BLIND",9627535,NA,"complete",NA,"5f77727b54feeb2b8dd5f06f","computer","Desktop or Laptop","Mac OS 10.15.3","Safari 13.0.5","1280x800","1280x663","DiagramNoFeedback","DiagramNoFeedback","DiagramNoFeedback",12,"1",7,"Test","buttonB","continue_button",138278.52,NA,NA,"",NA,"GeldDiagramNoFeedback",NA
"4",1601664162306,2,"02/10/2020 20:42:42","BLIND",9627535,NA,"complete",NA,"5f77727b54feeb2b8dd5f06f","computer","Desktop or Laptop","Mac OS 10.15.3","Safari 13.0.5","1280x800","1280x663","DiagramNoFeedback","DiagramNoFeedback","DiagramNoFeedback",1,"1",3,"Diagram","DiagBox1","response_text_area",138278.52,NA,NA,"RP5KCCFL",NA,"SportenDiagramNoFeedback",NA
"40",1601665039467,2,"02/10/2020 20:57:19","BLIND",9627535,NA,"complete",NA,"5f77727b54feeb2b8dd5f06f","computer","Desktop or Laptop","Mac OS 10.15.3","Safari 13.0.5","1280x800","1280x663","DiagramNoFeedback","DiagramNoFeedback","DiagramNoFeedback",5,"2",1,"Screen 1","advancementZone","continue_button",138278.52,NA,NA,"",NA,"ReadyForNextTextScreen",NA
"41",1601665141629,2,"02/10/2020 20:59:01","BLIND",9627535,NA,"complete",NA,"5f77727b54feeb2b8dd5f06f","computer","Desktop or Laptop","Mac OS 10.15.3","Safari 13.0.5","1280x800","1280x663","DiagramNoFeedback","DiagramNoFeedback","DiagramNoFeedback",8,"1",1,"Text","advancementZone","continue_button",138278.52,NA,NA,"",NA,"BotoxDiagramNoFeedback",NA
"42",1601665143319,2,"02/10/2020 20:59:03","BLIND",9627535,NA,"complete",NA,"5f77727b54feeb2b8dd5f06f","computer","Desktop or Laptop","Mac OS 10.15.3","Safari 13.0.5","1280x800","1280x663","DiagramNoFeedback","DiagramNoFeedback","DiagramNoFeedback",8,"1",2,"JoL1","Three","response_button_text",138278.52,NA,NA,"1",1,"BotoxDiagramNoFeedback",NA
"43",1601665310784,2,"02/10/2020 21:01:50","BLIND",9627535,NA,"complete",NA,"5f77727b54feeb2b8dd5f06f","computer","Desktop or Laptop","Mac OS 10.15.3","Safari 13.0.5","1280x800","1280x663","DiagramNoFeedback","DiagramNoFeedback","DiagramNoFeedback",8,"1",3,"Diagram","DiagBox3","response_text_area",138278.52,NA,NA,"o2lNddPcg",NA,"BotoxDiagramNoFeedback",NA
"44",1601665310786,2,"02/10/2020 21:01:50","BLIND",9627535,NA,"complete",NA,"5f77727b54feeb2b8dd5f06f","computer","Desktop or Laptop","Mac OS 10.15.3","Safari 13.0.5","1280x800","1280x663","DiagramNoFeedback","DiagramNoFeedback","DiagramNoFeedback",8,"1",3,"Diagram","DiagBox4","response_text_area",138278.52,NA,NA,"oHvbc3u1eo",NA,"BotoxDiagramNoFeedback",NA
"45",1601665310787,2,"02/10/2020 21:01:50","BLIND",9627535,NA,"complete",NA,"5f77727b54feeb2b8dd5f06f","computer","Desktop or Laptop","Mac OS 10.15.3","Safari 13.0.5","1280x800","1280x663","DiagramNoFeedback","DiagramNoFeedback","DiagramNoFeedback",8,"1",3,"Diagram","DiagBox2","response_text_area",138278.52,NA,NA,"VhPKI5wCN",NA,"BotoxDiagramNoFeedback",NA
"46",1601665310787,2,"02/10/2020 21:01:50","BLIND",9627535,NA,"complete",NA,"5f77727b54feeb2b8dd5f06f","computer","Desktop or Laptop","Mac OS 10.15.3","Safari 13.0.5","1280x800","1280x663","DiagramNoFeedback","DiagramNoFeedback","DiagramNoFeedback",8,"1",3,"Diagram","DiagBox1","response_text_area",138278.52,NA,NA,"f7oo",NA,"BotoxDiagramNoFeedback",NA
"47",1601665310787,2,"02/10/2020 21:01:50","BLIND",9627535,NA,"complete",NA,"5f77727b54feeb2b8dd5f06f","computer","Desktop or Laptop","Mac OS 10.15.3","Safari 13.0.5","1280x800","1280x663","DiagramNoFeedback","DiagramNoFeedback","DiagramNoFeedback",8,"1",3,"Diagram","Zone1","continue_button",138278.52,NA,NA,"",NA,"BotoxDiagramNoFeedback",NA
"48",1601665333831,2,"02/10/2020 21:02:13","BLIND",9627535,NA,"complete",NA,"5f77727b54feeb2b8dd5f06f","computer","Desktop or Laptop","Mac OS 10.15.3","Safari 13.0.5","1280x800","1280x663","DiagramNoFeedback","DiagramNoFeedback","DiagramNoFeedback",8,"1",4,"OwnDiagram","Zone1","continue_button",138278.52,NA,NA,"",NA,"BotoxDiagramNoFeedback",NA
"49",1601665335250,2,"02/10/2020 21:02:15","BLIND",9627535,NA,"complete",NA,"5f77727b54feeb2b8dd5f06f","computer","Desktop or Laptop","Mac OS 10.15.3","Safari 13.0.5","1280x800","1280x663","DiagramNoFeedback","DiagramNoFeedback","DiagramNoFeedback",8,"1",5,"JoL2","Three","response_button_text",138278.52,NA,NA,"1",1,"BotoxDiagramNoFeedback",NA
"5",1601664162308,2,"02/10/2020 20:42:42","BLIND",9627535,NA,"complete",NA,"5f77727b54feeb2b8dd5f06f","computer","Desktop or Laptop","Mac OS 10.15.3","Safari 13.0.5","1280x800","1280x663","DiagramNoFeedback","DiagramNoFeedback","DiagramNoFeedback",1,"1",3,"Diagram","DiagBox2","response_text_area",138278.52,NA,NA,"kQvXDhY",NA,"SportenDiagramNoFeedback",NA
"50",1601665336542,2,"02/10/2020 21:02:16","BLIND",9627535,NA,"complete",NA,"5f77727b54feeb2b8dd5f06f","computer","Desktop or Laptop","Mac OS 10.15.3","Safari 13.0.5","1280x800","1280x663","DiagramNoFeedback","DiagramNoFeedback","DiagramNoFeedback",8,"1",6,"InstructieToets","advancementZone","continue_button",138278.52,NA,NA,"",NA,"BotoxDiagramNoFeedback",NA
"51",1601665449581,2,"02/10/2020 21:04:09","BLIND",9627535,NA,"complete",NA,"5f77727b54feeb2b8dd5f06f","computer","Desktop or Laptop","Mac OS 10.15.3","Safari 13.0.5","1280x800","1280x663","DiagramNoFeedback","DiagramNoFeedback","DiagramNoFeedback",8,"1",7,"Test","buttonA","response_text_area",138278.52,NA,NA,"GTCLNp",NA,"BotoxDiagramNoFeedback",NA
"52",1601665449582,2,"02/10/2020 21:04:09","BLIND",9627535,NA,"complete",NA,"5f77727b54feeb2b8dd5f06f","computer","Desktop or Laptop","Mac OS 10.15.3","Safari 13.0.5","1280x800","1280x663","DiagramNoFeedback","DiagramNoFeedback","DiagramNoFeedback",8,"1",7,"Test","buttonB","continue_button",138278.52,NA,NA,"",NA,"BotoxDiagramNoFeedback",NA
"53",1601665451903,2,"02/10/2020 21:04:11","BLIND",9627535,NA,"complete",NA,"5f77727b54feeb2b8dd5f06f","computer","Desktop or Laptop","Mac OS 10.15.3","Safari 13.0.5","1280x800","1280x663","DiagramNoFeedback","DiagramNoFeedback","DiagramNoFeedback",7,"3",1,"Screen 1","advancementZone","continue_button",138278.52,NA,NA,"",NA,"ReadyForNextTextScreen",NA
"54",1601665589389,2,"02/10/2020 21:06:29","BLIND",9627535,NA,"complete",NA,"5f77727b54feeb2b8dd5f06f","computer","Desktop or Laptop","Mac OS 10.15.3","Safari 13.0.5","1280x800","1280x663","DiagramNoFeedback","DiagramNoFeedback","DiagramNoFeedback",4,"1",1,"Text","advancementZone","continue_button",138278.52,NA,NA,"",NA,"BetonDiagramNoFeedback",NA
"55",1601665590238,2,"02/10/2020 21:06:30","BLIND",9627535,NA,"complete",NA,"5f77727b54feeb2b8dd5f06f","computer","Desktop or Laptop","Mac OS 10.15.3","Safari 13.0.5","1280x800","1280x663","DiagramNoFeedback","DiagramNoFeedback","DiagramNoFeedback",4,"1",2,"JoL1","Three","response_button_text",138278.52,NA,NA,"1",1,"BetonDiagramNoFeedback",NA
"56",1601665653850,2,"02/10/2020 21:07:33","BLIND",9627535,NA,"complete",NA,"5f77727b54feeb2b8dd5f06f","computer","Desktop or Laptop","Mac OS 10.15.3","Safari 13.0.5","1280x800","1280x663","DiagramNoFeedback","DiagramNoFeedback","DiagramNoFeedback",4,"1",3,"Diagram","DiagBox2","response_text_area",138278.52,NA,NA,"7Ay6tzt",NA,"BetonDiagramNoFeedback",NA
"57",1601665653852,2,"02/10/2020 21:07:33","BLIND",9627535,NA,"complete",NA,"5f77727b54feeb2b8dd5f06f","computer","Desktop or Laptop","Mac OS 10.15.3","Safari 13.0.5","1280x800","1280x663","DiagramNoFeedback","DiagramNoFeedback","DiagramNoFeedback",4,"1",3,"Diagram","DiagBox3","response_text_area",138278.52,NA,NA,"K7z",NA,"BetonDiagramNoFeedback",NA
"58",1601665653852,2,"02/10/2020 21:07:33","BLIND",9627535,NA,"complete",NA,"5f77727b54feeb2b8dd5f06f","computer","Desktop or Laptop","Mac OS 10.15.3","Safari 13.0.5","1280x800","1280x663","DiagramNoFeedback","DiagramNoFeedback","DiagramNoFeedback",4,"1",3,"Diagram","DiagBox4","response_text_area",138278.52,NA,NA,"oSLhYLMO6E",NA,"BetonDiagramNoFeedback",NA
"59",1601665653852,2,"02/10/2020 21:07:33","BLIND",9627535,NA,"complete",NA,"5f77727b54feeb2b8dd5f06f","computer","Desktop or Laptop","Mac OS 10.15.3","Safari 13.0.5","1280x800","1280x663","DiagramNoFeedback","DiagramNoFeedback","DiagramNoFeedback",4,"1",3,"Diagram","DiagBox1","response_text_area",138278.52,NA,NA,"1CWAes",NA,"BetonDiagramNoFeedback",NA
"6",1601664162308,2,"02/10/2020 20:42:42","BLIND",9627535,NA,"complete",NA,"5f77727b54feeb2b8dd5f06f","computer","Desktop or Laptop","Mac OS 10.15.3","Safari 13.0.5","1280x800","1280x663","DiagramNoFeedback","DiagramNoFeedback","DiagramNoFeedback",1,"1",3,"Diagram","DiagBox3","response_text_area",138278.52,NA,NA,"IN16T",NA,"SportenDiagramNoFeedback",NA
"60",1601665653852,2,"02/10/2020 21:07:33","BLIND",9627535,NA,"complete",NA,"5f77727b54feeb2b8dd5f06f","computer","Desktop or Laptop","Mac OS 10.15.3","Safari 13.0.5","1280x800","1280x663","DiagramNoFeedback","DiagramNoFeedback","DiagramNoFeedback",4,"1",3,"Diagram","Zone1","continue_button",138278.52,NA,NA,"",NA,"BetonDiagramNoFeedback",NA
"61",1601665662310,2,"02/10/2020 21:07:42","BLIND",9627535,NA,"complete",NA,"5f77727b54feeb2b8dd5f06f","computer","Desktop or Laptop","Mac OS 10.15.3","Safari 13.0.5","1280x800","1280x663","DiagramNoFeedback","DiagramNoFeedback","DiagramNoFeedback",4,"1",4,"OwnDiagram","Zone1","continue_button",138278.52,NA,NA,"",NA,"BetonDiagramNoFeedback",NA
"62",1601665663164,2,"02/10/2020 21:07:43","BLIND",9627535,NA,"complete",NA,"5f77727b54feeb2b8dd5f06f","computer","Desktop or Laptop","Mac OS 10.15.3","Safari 13.0.5","1280x800","1280x663","DiagramNoFeedback","DiagramNoFeedback","DiagramNoFeedback",4,"1",5,"JoL2","Four","response_button_text",138278.52,NA,NA,"1",1,"BetonDiagramNoFeedback",NA
"63",1601665664797,2,"02/10/2020 21:07:44","BLIND",9627535,NA,"complete",NA,"5f77727b54feeb2b8dd5f06f","computer","Desktop or Laptop","Mac OS 10.15.3","Safari 13.0.5","1280x800","1280x663","DiagramNoFeedback","DiagramNoFeedback","DiagramNoFeedback",4,"1",6,"InstructieToets","advancementZone","continue_button",138278.52,NA,NA,"",NA,"BetonDiagramNoFeedback",NA
"64",1601665759557,2,"02/10/2020 21:09:19","BLIND",9627535,NA,"complete",NA,"5f77727b54feeb2b8dd5f06f","computer","Desktop or Laptop","Mac OS 10.15.3","Safari 13.0.5","1280x800","1280x663","DiagramNoFeedback","DiagramNoFeedback","DiagramNoFeedback",4,"1",7,"Test","buttonA","response_text_area",138278.52,NA,NA,"6yBEw9",NA,"BetonDiagramNoFeedback",NA
"65",1601665759558,2,"02/10/2020 21:09:19","BLIND",9627535,NA,"complete",NA,"5f77727b54feeb2b8dd5f06f","computer","Desktop or Laptop","Mac OS 10.15.3","Safari 13.0.5","1280x800","1280x663","DiagramNoFeedback","DiagramNoFeedback","DiagramNoFeedback",4,"1",7,"Test","buttonB","continue_button",138278.52,NA,NA,"",NA,"BetonDiagramNoFeedback",NA
"66",1601665763454,2,"02/10/2020 21:09:23","BLIND",9627535,NA,"complete",NA,"5f77727b54feeb2b8dd5f06f","computer","Desktop or Laptop","Mac OS 10.15.3","Safari 13.0.5","1280x800","1280x663","DiagramNoFeedback","DiagramNoFeedback","DiagramNoFeedback",9,"4",1,"Screen 1","advancementZone","continue_button",138278.52,NA,NA,"",NA,"ReadyForNextTextScreen",NA
"67",1601665836996,2,"02/10/2020 21:10:36","BLIND",9627535,NA,"complete",NA,"5f77727b54feeb2b8dd5f06f","computer","Desktop or Laptop","Mac OS 10.15.3","Safari 13.0.5","1280x800","1280x663","DiagramNoFeedback","DiagramNoFeedback","DiagramNoFeedback",6,"1",1,"Text","advancementZone","continue_button",138278.52,NA,NA,"",NA,"SuezDiagramNoFeedback",NA
"68",1601665838117,2,"02/10/2020 21:10:38","BLIND",9627535,NA,"complete",NA,"5f77727b54feeb2b8dd5f06f","computer","Desktop or Laptop","Mac OS 10.15.3","Safari 13.0.5","1280x800","1280x663","DiagramNoFeedback","DiagramNoFeedback","DiagramNoFeedback",6,"1",2,"JoL1","Two","response_button_text",138278.52,NA,NA,"1",1,"SuezDiagramNoFeedback",NA
"69",1601665935376,2,"02/10/2020 21:12:15","BLIND",9627535,NA,"complete",NA,"5f77727b54feeb2b8dd5f06f","computer","Desktop or Laptop","Mac OS 10.15.3","Safari 13.0.5","1280x800","1280x663","DiagramNoFeedback","DiagramNoFeedback","DiagramNoFeedback",6,"1",3,"Diagram","DiagBox2","response_text_area",138278.52,NA,NA,"tVOw35HG",NA,"SuezDiagramNoFeedback",NA
"7",1601664162308,2,"02/10/2020 20:42:42","BLIND",9627535,NA,"complete",NA,"5f77727b54feeb2b8dd5f06f","computer","Desktop or Laptop","Mac OS 10.15.3","Safari 13.0.5","1280x800","1280x663","DiagramNoFeedback","DiagramNoFeedback","DiagramNoFeedback",1,"1",3,"Diagram","DiagBox4","response_text_area",138278.52,NA,NA,"214DZ",NA,"SportenDiagramNoFeedback",NA
"70",1601665935378,2,"02/10/2020 21:12:15","BLIND",9627535,NA,"complete",NA,"5f77727b54feeb2b8dd5f06f","computer","Desktop or Laptop","Mac OS 10.15.3","Safari 13.0.5","1280x800","1280x663","DiagramNoFeedback","DiagramNoFeedback","DiagramNoFeedback",6,"1",3,"Diagram","DiagBox3","response_text_area",138278.52,NA,NA,"EBNq",NA,"SuezDiagramNoFeedback",NA
"71",1601665935378,2,"02/10/2020 21:12:15","BLIND",9627535,NA,"complete",NA,"5f77727b54feeb2b8dd5f06f","computer","Desktop or Laptop","Mac OS 10.15.3","Safari 13.0.5","1280x800","1280x663","DiagramNoFeedback","DiagramNoFeedback","DiagramNoFeedback",6,"1",3,"Diagram","DiagBox4","response_text_area",138278.52,NA,NA,"e2u6Z",NA,"SuezDiagramNoFeedback",NA
"72",1601665935378,2,"02/10/2020 21:12:15","BLIND",9627535,NA,"complete",NA,"5f77727b54feeb2b8dd5f06f","computer","Desktop or Laptop","Mac OS 10.15.3","Safari 13.0.5","1280x800","1280x663","DiagramNoFeedback","DiagramNoFeedback","DiagramNoFeedback",6,"1",3,"Diagram","DiagBox1","response_text_area",138278.52,NA,NA,"Ku4rU1zfUQ",NA,"SuezDiagramNoFeedback",NA
"73",1601665935379,2,"02/10/2020 21:12:15","BLIND",9627535,NA,"complete",NA,"5f77727b54feeb2b8dd5f06f","computer","Desktop or Laptop","Mac OS 10.15.3","Safari 13.0.5","1280x800","1280x663","DiagramNoFeedback","DiagramNoFeedback","DiagramNoFeedback",6,"1",3,"Diagram","Zone1","continue_button",138278.52,NA,NA,"",NA,"SuezDiagramNoFeedback",NA
"74",1601665943835,2,"02/10/2020 21:12:23","BLIND",9627535,NA,"complete",NA,"5f77727b54feeb2b8dd5f06f","computer","Desktop or Laptop","Mac OS 10.15.3","Safari 13.0.5","1280x800","1280x663","DiagramNoFeedback","DiagramNoFeedback","DiagramNoFeedback",6,"1",4,"OwnDiagram","Zone1","continue_button",138278.52,NA,NA,"",NA,"SuezDiagramNoFeedback",NA
"75",1601665944729,2,"02/10/2020 21:12:24","BLIND",9627535,NA,"complete",NA,"5f77727b54feeb2b8dd5f06f","computer","Desktop or Laptop","Mac OS 10.15.3","Safari 13.0.5","1280x800","1280x663","DiagramNoFeedback","DiagramNoFeedback","DiagramNoFeedback",6,"1",5,"JoL2","Three","response_button_text",138278.52,NA,NA,"1",1,"SuezDiagramNoFeedback",NA
"76",1601665946159,2,"02/10/2020 21:12:26","BLIND",9627535,NA,"complete",NA,"5f77727b54feeb2b8dd5f06f","computer","Desktop or Laptop","Mac OS 10.15.3","Safari 13.0.5","1280x800","1280x663","DiagramNoFeedback","DiagramNoFeedback","DiagramNoFeedback",6,"1",6,"InstructieToets","advancementZone","continue_button",138278.52,NA,NA,"",NA,"SuezDiagramNoFeedback",NA
"77",1601666083322,2,"02/10/2020 21:14:43","BLIND",9627535,NA,"complete",NA,"5f77727b54feeb2b8dd5f06f","computer","Desktop or Laptop","Mac OS 10.15.3","Safari 13.0.5","1280x800","1280x663","DiagramNoFeedback","DiagramNoFeedback","DiagramNoFeedback",6,"1",7,"Test","buttonA","response_text_area",138278.52,NA,NA,"h3eV",NA,"SuezDiagramNoFeedback",NA
"78",1601666083323,2,"02/10/2020 21:14:43","BLIND",9627535,NA,"complete",NA,"5f77727b54feeb2b8dd5f06f","computer","Desktop or Laptop","Mac OS 10.15.3","Safari 13.0.5","1280x800","1280x663","DiagramNoFeedback","DiagramNoFeedback","DiagramNoFeedback",6,"1",7,"Test","buttonB","continue_button",138278.52,NA,NA,"",NA,"SuezDiagramNoFeedback",NA
"79",1601666085115,2,"02/10/2020 21:14:45","BLIND",9627535,NA,"complete",NA,"5f77727b54feeb2b8dd5f06f","computer","Desktop or Laptop","Mac OS 10.15.3","Safari 13.0.5","1280x800","1280x663","DiagramNoFeedback","DiagramNoFeedback","DiagramNoFeedback",11,"5",1,"Screen 1","advancementZone","continue_button",138278.52,NA,NA,"",NA,"ReadyForNextTextScreen",NA
"8",1601664162308,2,"02/10/2020 20:42:42","BLIND",9627535,NA,"complete",NA,"5f77727b54feeb2b8dd5f06f","computer","Desktop or Laptop","Mac OS 10.15.3","Safari 13.0.5","1280x800","1280x663","DiagramNoFeedback","DiagramNoFeedback","DiagramNoFeedback",1,"1",3,"Diagram","Zone1","continue_button",138278.52,NA,NA,"",NA,"SportenDiagramNoFeedback",NA
"80",1601666179902,2,"02/10/2020 21:16:19","BLIND",9627535,NA,"complete",NA,"5f77727b54feeb2b8dd5f06f","computer","Desktop or Laptop","Mac OS 10.15.3","Safari 13.0.5","1280x800","1280x663","DiagramNoFeedback","DiagramNoFeedback","DiagramNoFeedback",2,"1",1,"Text","advancementZone","continue_button",138278.52,NA,NA,"",NA,"MetroDiagramNoFeedback",NA
"81",1601666181625,2,"02/10/2020 21:16:21","BLIND",9627535,NA,"complete",NA,"5f77727b54feeb2b8dd5f06f","computer","Desktop or Laptop","Mac OS 10.15.3","Safari 13.0.5","1280x800","1280x663","DiagramNoFeedback","DiagramNoFeedback","DiagramNoFeedback",2,"1",2,"JoL1","Two","response_button_text",138278.52,NA,NA,"1",1,"MetroDiagramNoFeedback",NA
"82",1601666316116,2,"02/10/2020 21:18:36","BLIND",9627535,NA,"complete",NA,"5f77727b54feeb2b8dd5f06f","computer","Desktop or Laptop","Mac OS 10.15.3","Safari 13.0.5","1280x800","1280x663","DiagramNoFeedback","DiagramNoFeedback","DiagramNoFeedback",2,"1",3,"Diagram","DiagBox1","response_text_area",138278.52,NA,NA,"r3xJV6",NA,"MetroDiagramNoFeedback",NA
"83",1601666316118,2,"02/10/2020 21:18:36","BLIND",9627535,NA,"complete",NA,"5f77727b54feeb2b8dd5f06f","computer","Desktop or Laptop","Mac OS 10.15.3","Safari 13.0.5","1280x800","1280x663","DiagramNoFeedback","DiagramNoFeedback","DiagramNoFeedback",2,"1",3,"Diagram","DiagBox3","response_text_area",138278.52,NA,NA,"aN",NA,"MetroDiagramNoFeedback",NA
"84",1601666316118,2,"02/10/2020 21:18:36","BLIND",9627535,NA,"complete",NA,"5f77727b54feeb2b8dd5f06f","computer","Desktop or Laptop","Mac OS 10.15.3","Safari 13.0.5","1280x800","1280x663","DiagramNoFeedback","DiagramNoFeedback","DiagramNoFeedback",2,"1",3,"Diagram","DiagBox4","response_text_area",138278.52,NA,NA,"6osidpfu",NA,"MetroDiagramNoFeedback",NA
"85",1601666316118,2,"02/10/2020 21:18:36","BLIND",9627535,NA,"complete",NA,"5f77727b54feeb2b8dd5f06f","computer","Desktop or Laptop","Mac OS 10.15.3","Safari 13.0.5","1280x800","1280x663","DiagramNoFeedback","DiagramNoFeedback","DiagramNoFeedback",2,"1",3,"Diagram","DiagBox2","response_text_area",138278.52,NA,NA,"ye",NA,"MetroDiagramNoFeedback",NA
"86",1601666316118,2,"02/10/2020 21:18:36","BLIND",9627535,NA,"complete",NA,"5f77727b54feeb2b8dd5f06f","computer","Desktop or Laptop","Mac OS 10.15.3","Safari 13.0.5","1280x800","1280x663","DiagramNoFeedback","DiagramNoFeedback","DiagramNoFeedback",2,"1",3,"Diagram","Zone3","continue_button",138278.52,NA,NA,"",NA,"MetroDiagramNoFeedback",NA
"87",1601666324955,2,"02/10/2020 21:18:44","BLIND",9627535,NA,"complete",NA,"5f77727b54feeb2b8dd5f06f","computer","Desktop or Laptop","Mac OS 10.15.3","Safari 13.0.5","1280x800","1280x663","DiagramNoFeedback","DiagramNoFeedback","DiagramNoFeedback",2,"1",4,"OwnDiagramDis","Zone3","continue_button",138278.52,NA,NA,"",NA,"MetroDiagramNoFeedback",NA
"88",1601666326617,2,"02/10/2020 21:18:46","BLIND",9627535,NA,"complete",NA,"5f77727b54feeb2b8dd5f06f","computer","Desktop or Laptop","Mac OS 10.15.3","Safari 13.0.5","1280x800","1280x663","DiagramNoFeedback","DiagramNoFeedback","DiagramNoFeedback",2,"1",5,"JoL2","Three","response_button_text",138278.52,NA,NA,"1",1,"MetroDiagramNoFeedback",NA
"89",1601666327836,2,"02/10/2020 21:18:47","BLIND",9627535,NA,"complete",NA,"5f77727b54feeb2b8dd5f06f","computer","Desktop or Laptop","Mac OS 10.15.3","Safari 13.0.5","1280x800","1280x663","DiagramNoFeedback","DiagramNoFeedback","DiagramNoFeedback",2,"1",6,"InstructieToets","advancementZone","continue_button",138278.52,NA,NA,"",NA,"MetroDiagramNoFeedback",NA
"9",1601664180399,2,"02/10/2020 20:43:00","BLIND",9627535,NA,"complete",NA,"5f77727b54feeb2b8dd5f06f","computer","Desktop or Laptop","Mac OS 10.15.3","Safari 13.0.5","1280x800","1280x663","DiagramNoFeedback","DiagramNoFeedback","DiagramNoFeedback",1,"1",4,"OwnDiagram","Zone1","continue_button",138278.52,NA,NA,"",NA,"SportenDiagramNoFeedback",NA
"90",1601666461144,2,"02/10/2020 21:21:01","BLIND",9627535,NA,"complete",NA,"5f77727b54feeb2b8dd5f06f","computer","Desktop or Laptop","Mac OS 10.15.3","Safari 13.0.5","1280x800","1280x663","DiagramNoFeedback","DiagramNoFeedback","DiagramNoFeedback",2,"1",7,"Test","buttonA","response_text_area",138278.52,NA,NA,"ADUI90dZ",NA,"MetroDiagramNoFeedback",NA
"91",1601666461146,2,"02/10/2020 21:21:01","BLIND",9627535,NA,"complete",NA,"5f77727b54feeb2b8dd5f06f","computer","Desktop or Laptop","Mac OS 10.15.3","Safari 13.0.5","1280x800","1280x663","DiagramNoFeedback","DiagramNoFeedback","DiagramNoFeedback",2,"1",7,"Test","buttonB","continue_button",138278.52,NA,NA,"",NA,"MetroDiagramNoFeedback",NA
"92",1601666461147,2,"02/10/2020 21:21:01","BLIND",9627535,NA,"complete",NA,"5f77727b54feeb2b8dd5f06f","computer","Desktop or Laptop","Mac OS 10.15.3","Safari 13.0.5","1280x800","1280x663","DiagramNoFeedback","DiagramNoFeedback","",NA,"END TASK",NA,"","","",2451472,NA,NA,"",NA,"",NA
"END OF FILE",NA,NA,"","",NA,NA,"",NA,"","","","","","","","","","",NA,"",NA,"","","",138278.52,NA,NA,"",NA,"",NA
"END OF FILE",NA,NA,"","",NA,NA,"",NA,"","","","","","","","","","",NA,"",NA,"","","",NA,NA,NA,"",NA,"",NA
