"Event_Index","Local_Timestamp","Local_Timezone","Local_Date","Participant_Public_ID","Participant_Private_ID","Participant_Starting_Group","Participant_Status","Participant_Completion_Code","Participant_External_Session_ID","Participant_Device_Type","Participant_Device","Participant_OS","Participant_Browser","Participant_Monitor_Size","Participant_Viewport_Size","randomiser_81rl","Spreadsheet","Spreadsheet_Name","Spreadsheet_Row","Trial_Number","Screen_Number","Screen_Name","Zone_Name","Zone_Type","Reaction_Time","Reaction_Onset","Response_Type","Response","Attempt","display","Diagram_Box_Require_Response"
"1",1604403989692,1,"03/11/2020 12:46:29","BLIND",1683571,NA,"complete",NA,"5fa141cd0caca41eed982b1e","computer","Desktop or Laptop","Windows 10","Chrome 86.0.4240.111","1280x720","1280x578","DiagramFeedback","DiagramFeedback","",NA,"BEGIN TASK",NA,"","","",NA,NA,NA,"",NA,"",NA
"10",1604404134274,1,"03/11/2020 12:48:54","BLIND",1683571,NA,"complete",NA,"5fa141cd0caca41eed982b1e","computer","Desktop or Laptop","Windows 10","Chrome 86.0.4240.111","1280x720","1280x578","DiagramFeedback","DiagramFeedback","DiagramFeedback",1,"1",5,"JoL2","Four","response_button_text",48309.24,NA,NA,"4",1,"SportenDiagramFeedback",NA
"11",1604404136593,1,"03/11/2020 12:48:56","BLIND",1683571,NA,"complete",NA,"5fa141cd0caca41eed982b1e","computer","Desktop or Laptop","Windows 10","Chrome 86.0.4240.111","1280x720","1280x578","DiagramFeedback","DiagramFeedback","DiagramFeedback",1,"1",6,"InstructieToets","advancementZone","continue_button",48309.24,NA,NA,"",NA,"SportenDiagramFeedback",NA
"12",1604404238884,1,"03/11/2020 12:50:38","BLIND",1683571,NA,"complete",NA,"5fa141cd0caca41eed982b1e","computer","Desktop or Laptop","Windows 10","Chrome 86.0.4240.111","1280x720","1280x578","DiagramFeedback","DiagramFeedback","DiagramFeedback",1,"1",7,"Test","buttonA","response_text_area",48309.24,NA,NA,"SojEbXm",NA,"SportenDiagramFeedback",NA
"13",1604404238886,1,"03/11/2020 12:50:38","BLIND",1683571,NA,"complete",NA,"5fa141cd0caca41eed982b1e","computer","Desktop or Laptop","Windows 10","Chrome 86.0.4240.111","1280x720","1280x578","DiagramFeedback","DiagramFeedback","DiagramFeedback",1,"1",7,"Test","buttonB","continue_button",48309.24,NA,NA,"",NA,"SportenDiagramFeedback",NA
"14",1604404240453,1,"03/11/2020 12:50:40","BLIND",1683571,NA,"complete",NA,"5fa141cd0caca41eed982b1e","computer","Desktop or Laptop","Windows 10","Chrome 86.0.4240.111","1280x720","1280x578","DiagramFeedback","DiagramFeedback","DiagramFeedback",1,"1",8,"Klaar4Experiment","advancementZone","continue_button",48309.24,NA,NA,"",NA,"SportenDiagramFeedback",NA
"15",1604404292676,1,"03/11/2020 12:51:32","BLIND",1683571,NA,"complete",NA,"5fa141cd0caca41eed982b1e","computer","Desktop or Laptop","Windows 10","Chrome 86.0.4240.111","1280x720","1280x578","DiagramFeedback","DiagramFeedback","DiagramFeedback",10,"1",1,"Text","advancementZone","continue_button",48309.24,NA,NA,"",NA,"MuziekDiagramFeedback",NA
"16",1604404298044,1,"03/11/2020 12:51:38","BLIND",1683571,NA,"complete",NA,"5fa141cd0caca41eed982b1e","computer","Desktop or Laptop","Windows 10","Chrome 86.0.4240.111","1280x720","1280x578","DiagramFeedback","DiagramFeedback","DiagramFeedback",10,"1",2,"JoL1","Two","response_button_text",48309.24,NA,NA,"4",1,"MuziekDiagramFeedback",NA
"17",1604404364833,1,"03/11/2020 12:52:44","BLIND",1683571,NA,"complete",NA,"5fa141cd0caca41eed982b1e","computer","Desktop or Laptop","Windows 10","Chrome 86.0.4240.111","1280x720","1280x578","DiagramFeedback","DiagramFeedback","DiagramFeedback",10,"1",3,"Diagram","DiagBox1","response_text_area",48309.24,NA,NA,"SZp",NA,"MuziekDiagramFeedback",NA
"18",1604404364835,1,"03/11/2020 12:52:44","BLIND",1683571,NA,"complete",NA,"5fa141cd0caca41eed982b1e","computer","Desktop or Laptop","Windows 10","Chrome 86.0.4240.111","1280x720","1280x578","DiagramFeedback","DiagramFeedback","DiagramFeedback",10,"1",3,"Diagram","DiagBox2","response_text_area",48309.24,NA,NA,"lvgB7p2F",NA,"MuziekDiagramFeedback",NA
"19",1604404364835,1,"03/11/2020 12:52:44","BLIND",1683571,NA,"complete",NA,"5fa141cd0caca41eed982b1e","computer","Desktop or Laptop","Windows 10","Chrome 86.0.4240.111","1280x720","1280x578","DiagramFeedback","DiagramFeedback","DiagramFeedback",10,"1",3,"Diagram","DiagBox3","response_text_area",48309.24,NA,NA,"sMPf",NA,"MuziekDiagramFeedback",NA
"2",1604404024317,1,"03/11/2020 12:47:04","BLIND",1683571,NA,"complete",NA,"5fa141cd0caca41eed982b1e","computer","Desktop or Laptop","Windows 10","Chrome 86.0.4240.111","1280x720","1280x578","DiagramFeedback","DiagramFeedback","DiagramFeedback",1,"1",1,"Text","advancementZone","continue_button",48309.24,NA,NA,"",NA,"SportenDiagramFeedback",NA
"20",1604404364835,1,"03/11/2020 12:52:44","BLIND",1683571,NA,"complete",NA,"5fa141cd0caca41eed982b1e","computer","Desktop or Laptop","Windows 10","Chrome 86.0.4240.111","1280x720","1280x578","DiagramFeedback","DiagramFeedback","DiagramFeedback",10,"1",3,"Diagram","DiagBox4","response_text_area",48309.24,NA,NA,"P3Gw4K",NA,"MuziekDiagramFeedback",NA
"21",1604404364836,1,"03/11/2020 12:52:44","BLIND",1683571,NA,"complete",NA,"5fa141cd0caca41eed982b1e","computer","Desktop or Laptop","Windows 10","Chrome 86.0.4240.111","1280x720","1280x578","DiagramFeedback","DiagramFeedback","DiagramFeedback",10,"1",3,"Diagram","Zone1","continue_button",48309.24,NA,NA,"",NA,"MuziekDiagramFeedback",NA
"22",1604404380905,1,"03/11/2020 12:53:00","BLIND",1683571,NA,"complete",NA,"5fa141cd0caca41eed982b1e","computer","Desktop or Laptop","Windows 10","Chrome 86.0.4240.111","1280x720","1280x578","DiagramFeedback","DiagramFeedback","DiagramFeedback",10,"1",4,"Feedback","Zone1","continue_button",48309.24,NA,NA,"",NA,"MuziekDiagramFeedback",NA
"23",1604404382948,1,"03/11/2020 12:53:02","BLIND",1683571,NA,"complete",NA,"5fa141cd0caca41eed982b1e","computer","Desktop or Laptop","Windows 10","Chrome 86.0.4240.111","1280x720","1280x578","DiagramFeedback","DiagramFeedback","DiagramFeedback",10,"1",5,"JoL2","Three","response_button_text",48309.24,NA,NA,"4",1,"MuziekDiagramFeedback",NA
"24",1604404384487,1,"03/11/2020 12:53:04","BLIND",1683571,NA,"complete",NA,"5fa141cd0caca41eed982b1e","computer","Desktop or Laptop","Windows 10","Chrome 86.0.4240.111","1280x720","1280x578","DiagramFeedback","DiagramFeedback","DiagramFeedback",10,"1",6,"InstructieToets","advancementZone","continue_button",48309.24,NA,NA,"",NA,"MuziekDiagramFeedback",NA
"25",1604404483757,1,"03/11/2020 12:54:43","BLIND",1683571,NA,"complete",NA,"5fa141cd0caca41eed982b1e","computer","Desktop or Laptop","Windows 10","Chrome 86.0.4240.111","1280x720","1280x578","DiagramFeedback","DiagramFeedback","DiagramFeedback",10,"1",7,"Test","buttonA","response_text_area",48309.24,NA,NA,"A8e99II",NA,"MuziekDiagramFeedback",NA
"26",1604404483760,1,"03/11/2020 12:54:43","BLIND",1683571,NA,"complete",NA,"5fa141cd0caca41eed982b1e","computer","Desktop or Laptop","Windows 10","Chrome 86.0.4240.111","1280x720","1280x578","DiagramFeedback","DiagramFeedback","DiagramFeedback",10,"1",7,"Test","buttonB","continue_button",48309.24,NA,NA,"",NA,"MuziekDiagramFeedback",NA
"27",1604404486157,1,"03/11/2020 12:54:46","BLIND",1683571,NA,"complete",NA,"5fa141cd0caca41eed982b1e","computer","Desktop or Laptop","Windows 10","Chrome 86.0.4240.111","1280x720","1280x578","DiagramFeedback","DiagramFeedback","DiagramFeedback",3,"1",1,"ReadyForNext","advancementZone","continue_button",48309.24,NA,NA,"",NA,"ReadyForNextTextScreen",NA
"28",1604404545172,1,"03/11/2020 12:55:45","BLIND",1683571,NA,"complete",NA,"5fa141cd0caca41eed982b1e","computer","Desktop or Laptop","Windows 10","Chrome 86.0.4240.111","1280x720","1280x578","DiagramFeedback","DiagramFeedback","DiagramFeedback",8,"1",1,"Text","advancementZone","continue_button",48309.24,NA,NA,"",NA,"BotoxDiagramFeedback",NA
"29",1604404547806,1,"03/11/2020 12:55:47","BLIND",1683571,NA,"complete",NA,"5fa141cd0caca41eed982b1e","computer","Desktop or Laptop","Windows 10","Chrome 86.0.4240.111","1280x720","1280x578","DiagramFeedback","DiagramFeedback","DiagramFeedback",8,"1",2,"JoL1","Three","response_button_text",48309.24,NA,NA,"4",1,"BotoxDiagramFeedback",NA
"3",1604404029914,1,"03/11/2020 12:47:09","BLIND",1683571,NA,"complete",NA,"5fa141cd0caca41eed982b1e","computer","Desktop or Laptop","Windows 10","Chrome 86.0.4240.111","1280x720","1280x578","DiagramFeedback","DiagramFeedback","DiagramFeedback",1,"1",2,"JoL1","Three","response_button_text",48309.24,NA,NA,"4",1,"SportenDiagramFeedback",NA
"30",1604404619685,1,"03/11/2020 12:56:59","BLIND",1683571,NA,"complete",NA,"5fa141cd0caca41eed982b1e","computer","Desktop or Laptop","Windows 10","Chrome 86.0.4240.111","1280x720","1280x578","DiagramFeedback","DiagramFeedback","DiagramFeedback",8,"1",3,"Diagram","DiagBox3","response_text_area",48309.24,NA,NA,"3emJ",NA,"BotoxDiagramFeedback",NA
"31",1604404619687,1,"03/11/2020 12:56:59","BLIND",1683571,NA,"complete",NA,"5fa141cd0caca41eed982b1e","computer","Desktop or Laptop","Windows 10","Chrome 86.0.4240.111","1280x720","1280x578","DiagramFeedback","DiagramFeedback","DiagramFeedback",8,"1",3,"Diagram","DiagBox4","response_text_area",48309.24,NA,NA,"9AktV",NA,"BotoxDiagramFeedback",NA
"32",1604404619688,1,"03/11/2020 12:56:59","BLIND",1683571,NA,"complete",NA,"5fa141cd0caca41eed982b1e","computer","Desktop or Laptop","Windows 10","Chrome 86.0.4240.111","1280x720","1280x578","DiagramFeedback","DiagramFeedback","DiagramFeedback",8,"1",3,"Diagram","DiagBox2","response_text_area",48309.24,NA,NA,"HCFElz84",NA,"BotoxDiagramFeedback",NA
"33",1604404619688,1,"03/11/2020 12:56:59","BLIND",1683571,NA,"complete",NA,"5fa141cd0caca41eed982b1e","computer","Desktop or Laptop","Windows 10","Chrome 86.0.4240.111","1280x720","1280x578","DiagramFeedback","DiagramFeedback","DiagramFeedback",8,"1",3,"Diagram","DiagBox1","response_text_area",48309.24,NA,NA,"owOrP",NA,"BotoxDiagramFeedback",NA
"34",1604404619688,1,"03/11/2020 12:56:59","BLIND",1683571,NA,"complete",NA,"5fa141cd0caca41eed982b1e","computer","Desktop or Laptop","Windows 10","Chrome 86.0.4240.111","1280x720","1280x578","DiagramFeedback","DiagramFeedback","DiagramFeedback",8,"1",3,"Diagram","Zone1","continue_button",48309.24,NA,NA,"",NA,"BotoxDiagramFeedback",NA
"35",1604404652580,1,"03/11/2020 12:57:32","BLIND",1683571,NA,"complete",NA,"5fa141cd0caca41eed982b1e","computer","Desktop or Laptop","Windows 10","Chrome 86.0.4240.111","1280x720","1280x578","DiagramFeedback","DiagramFeedback","DiagramFeedback",8,"1",4,"Feedback","Zone1","continue_button",48309.24,NA,NA,"",NA,"BotoxDiagramFeedback",NA
"36",1604404654371,1,"03/11/2020 12:57:34","BLIND",1683571,NA,"complete",NA,"5fa141cd0caca41eed982b1e","computer","Desktop or Laptop","Windows 10","Chrome 86.0.4240.111","1280x720","1280x578","DiagramFeedback","DiagramFeedback","DiagramFeedback",8,"1",5,"JoL2","Four","response_button_text",48309.24,NA,NA,"4",1,"BotoxDiagramFeedback",NA
"37",1604404655805,1,"03/11/2020 12:57:35","BLIND",1683571,NA,"complete",NA,"5fa141cd0caca41eed982b1e","computer","Desktop or Laptop","Windows 10","Chrome 86.0.4240.111","1280x720","1280x578","DiagramFeedback","DiagramFeedback","DiagramFeedback",8,"1",6,"InstructieToets","advancementZone","continue_button",48309.24,NA,NA,"",NA,"BotoxDiagramFeedback",NA
"38",1604404726916,1,"03/11/2020 12:58:46","BLIND",1683571,NA,"complete",NA,"5fa141cd0caca41eed982b1e","computer","Desktop or Laptop","Windows 10","Chrome 86.0.4240.111","1280x720","1280x578","DiagramFeedback","DiagramFeedback","DiagramFeedback",8,"1",7,"Test","buttonA","response_text_area",48309.24,NA,NA,"9pFaor",NA,"BotoxDiagramFeedback",NA
"39",1604404726918,1,"03/11/2020 12:58:46","BLIND",1683571,NA,"complete",NA,"5fa141cd0caca41eed982b1e","computer","Desktop or Laptop","Windows 10","Chrome 86.0.4240.111","1280x720","1280x578","DiagramFeedback","DiagramFeedback","DiagramFeedback",8,"1",7,"Test","buttonB","continue_button",48309.24,NA,NA,"",NA,"BotoxDiagramFeedback",NA
"4",1604404116361,1,"03/11/2020 12:48:36","BLIND",1683571,NA,"complete",NA,"5fa141cd0caca41eed982b1e","computer","Desktop or Laptop","Windows 10","Chrome 86.0.4240.111","1280x720","1280x578","DiagramFeedback","DiagramFeedback","DiagramFeedback",1,"1",3,"Screen 3","DiagBox1","response_text_area",48309.24,NA,NA,"UVJjId67N",NA,"SportenDiagramFeedback",NA
"40",1604404729089,1,"03/11/2020 12:58:49","BLIND",1683571,NA,"complete",NA,"5fa141cd0caca41eed982b1e","computer","Desktop or Laptop","Windows 10","Chrome 86.0.4240.111","1280x720","1280x578","DiagramFeedback","DiagramFeedback","DiagramFeedback",5,"2",1,"ReadyForNext","advancementZone","continue_button",48309.24,NA,NA,"",NA,"ReadyForNextTextScreen",NA
"41",1604404786347,1,"03/11/2020 12:59:46","BLIND",1683571,NA,"complete",NA,"5fa141cd0caca41eed982b1e","computer","Desktop or Laptop","Windows 10","Chrome 86.0.4240.111","1280x720","1280x578","DiagramFeedback","DiagramFeedback","DiagramFeedback",4,"1",1,"Text","advancementZone","continue_button",48309.24,NA,NA,"",NA,"BetonDiagramFeedback",NA
"42",1604404787893,1,"03/11/2020 12:59:47","BLIND",1683571,NA,"complete",NA,"5fa141cd0caca41eed982b1e","computer","Desktop or Laptop","Windows 10","Chrome 86.0.4240.111","1280x720","1280x578","DiagramFeedback","DiagramFeedback","DiagramFeedback",4,"1",2,"JoL1","Three","response_button_text",48309.24,NA,NA,"4",1,"BetonDiagramFeedback",NA
"43",1604404848352,1,"03/11/2020 13:00:48","BLIND",1683571,NA,"complete",NA,"5fa141cd0caca41eed982b1e","computer","Desktop or Laptop","Windows 10","Chrome 86.0.4240.111","1280x720","1280x578","DiagramFeedback","DiagramFeedback","DiagramFeedback",4,"1",3,"Diagram","DiagBox2","response_text_area",48309.24,NA,NA,"v9",NA,"BetonDiagramFeedback",NA
"44",1604404848354,1,"03/11/2020 13:00:48","BLIND",1683571,NA,"complete",NA,"5fa141cd0caca41eed982b1e","computer","Desktop or Laptop","Windows 10","Chrome 86.0.4240.111","1280x720","1280x578","DiagramFeedback","DiagramFeedback","DiagramFeedback",4,"1",3,"Diagram","DiagBox3","response_text_area",48309.24,NA,NA,"YnJ9TOvMeM",NA,"BetonDiagramFeedback",NA
"45",1604404848354,1,"03/11/2020 13:00:48","BLIND",1683571,NA,"complete",NA,"5fa141cd0caca41eed982b1e","computer","Desktop or Laptop","Windows 10","Chrome 86.0.4240.111","1280x720","1280x578","DiagramFeedback","DiagramFeedback","DiagramFeedback",4,"1",3,"Diagram","DiagBox4","response_text_area",48309.24,NA,NA,"KOD",NA,"BetonDiagramFeedback",NA
"46",1604404848355,1,"03/11/2020 13:00:48","BLIND",1683571,NA,"complete",NA,"5fa141cd0caca41eed982b1e","computer","Desktop or Laptop","Windows 10","Chrome 86.0.4240.111","1280x720","1280x578","DiagramFeedback","DiagramFeedback","DiagramFeedback",4,"1",3,"Diagram","DiagBox1","response_text_area",48309.24,NA,NA,"fNrGfr7ov",NA,"BetonDiagramFeedback",NA
"47",1604404848355,1,"03/11/2020 13:00:48","BLIND",1683571,NA,"complete",NA,"5fa141cd0caca41eed982b1e","computer","Desktop or Laptop","Windows 10","Chrome 86.0.4240.111","1280x720","1280x578","DiagramFeedback","DiagramFeedback","DiagramFeedback",4,"1",3,"Diagram","Zone1","continue_button",48309.24,NA,NA,"",NA,"BetonDiagramFeedback",NA
"48",1604404868313,1,"03/11/2020 13:01:08","BLIND",1683571,NA,"complete",NA,"5fa141cd0caca41eed982b1e","computer","Desktop or Laptop","Windows 10","Chrome 86.0.4240.111","1280x720","1280x578","DiagramFeedback","DiagramFeedback","DiagramFeedback",4,"1",4,"Feedback","Zone1","continue_button",48309.24,NA,NA,"",NA,"BetonDiagramFeedback",NA
"49",1604404870247,1,"03/11/2020 13:01:10","BLIND",1683571,NA,"complete",NA,"5fa141cd0caca41eed982b1e","computer","Desktop or Laptop","Windows 10","Chrome 86.0.4240.111","1280x720","1280x578","DiagramFeedback","DiagramFeedback","DiagramFeedback",4,"1",5,"JoL2","Four","response_button_text",48309.24,NA,NA,"4",1,"BetonDiagramFeedback",NA
"5",1604404116364,1,"03/11/2020 12:48:36","BLIND",1683571,NA,"complete",NA,"5fa141cd0caca41eed982b1e","computer","Desktop or Laptop","Windows 10","Chrome 86.0.4240.111","1280x720","1280x578","DiagramFeedback","DiagramFeedback","DiagramFeedback",1,"1",3,"Screen 3","DiagBox2","response_text_area",48309.24,NA,NA,"bvO",NA,"SportenDiagramFeedback",NA
"50",1604404872106,1,"03/11/2020 13:01:12","BLIND",1683571,NA,"complete",NA,"5fa141cd0caca41eed982b1e","computer","Desktop or Laptop","Windows 10","Chrome 86.0.4240.111","1280x720","1280x578","DiagramFeedback","DiagramFeedback","DiagramFeedback",4,"1",6,"InstructieToets","advancementZone","continue_button",48309.24,NA,NA,"",NA,"BetonDiagramFeedback",NA
"51",1604404919973,1,"03/11/2020 13:01:59","BLIND",1683571,NA,"complete",NA,"5fa141cd0caca41eed982b1e","computer","Desktop or Laptop","Windows 10","Chrome 86.0.4240.111","1280x720","1280x578","DiagramFeedback","DiagramFeedback","DiagramFeedback",4,"1",7,"Test","buttonA","response_text_area",48309.24,NA,NA,"eeJocbZ",NA,"BetonDiagramFeedback",NA
"52",1604404919975,1,"03/11/2020 13:01:59","BLIND",1683571,NA,"complete",NA,"5fa141cd0caca41eed982b1e","computer","Desktop or Laptop","Windows 10","Chrome 86.0.4240.111","1280x720","1280x578","DiagramFeedback","DiagramFeedback","DiagramFeedback",4,"1",7,"Test","buttonB","continue_button",48309.24,NA,NA,"",NA,"BetonDiagramFeedback",NA
"53",1604404920958,1,"03/11/2020 13:02:00","BLIND",1683571,NA,"complete",NA,"5fa141cd0caca41eed982b1e","computer","Desktop or Laptop","Windows 10","Chrome 86.0.4240.111","1280x720","1280x578","DiagramFeedback","DiagramFeedback","DiagramFeedback",7,"3",1,"ReadyForNext","advancementZone","continue_button",48309.24,NA,NA,"",NA,"ReadyForNextTextScreen",NA
"54",1604404967045,1,"03/11/2020 13:02:47","BLIND",1683571,NA,"complete",NA,"5fa141cd0caca41eed982b1e","computer","Desktop or Laptop","Windows 10","Chrome 86.0.4240.111","1280x720","1280x578","DiagramFeedback","DiagramFeedback","DiagramFeedback",2,"1",1,"Text","advancementZone","continue_button",48309.24,NA,NA,"",NA,"MetroDiagramFeedback",NA
"55",1604404968680,1,"03/11/2020 13:02:48","BLIND",1683571,NA,"complete",NA,"5fa141cd0caca41eed982b1e","computer","Desktop or Laptop","Windows 10","Chrome 86.0.4240.111","1280x720","1280x578","DiagramFeedback","DiagramFeedback","DiagramFeedback",2,"1",2,"JoL1","Three","response_button_text",48309.24,NA,NA,"4",1,"MetroDiagramFeedback",NA
"56",1604405027402,1,"03/11/2020 13:03:47","BLIND",1683571,NA,"complete",NA,"5fa141cd0caca41eed982b1e","computer","Desktop or Laptop","Windows 10","Chrome 86.0.4240.111","1280x720","1280x578","DiagramFeedback","DiagramFeedback","DiagramFeedback",2,"1",3,"Diagram","DiagBox1","response_text_area",48309.24,NA,NA,"GdncnxUt9K",NA,"MetroDiagramFeedback",NA
"57",1604405027404,1,"03/11/2020 13:03:47","BLIND",1683571,NA,"complete",NA,"5fa141cd0caca41eed982b1e","computer","Desktop or Laptop","Windows 10","Chrome 86.0.4240.111","1280x720","1280x578","DiagramFeedback","DiagramFeedback","DiagramFeedback",2,"1",3,"Diagram","DiagBox3","response_text_area",48309.24,NA,NA,"Cu1OIWQQ",NA,"MetroDiagramFeedback",NA
"58",1604405027405,1,"03/11/2020 13:03:47","BLIND",1683571,NA,"complete",NA,"5fa141cd0caca41eed982b1e","computer","Desktop or Laptop","Windows 10","Chrome 86.0.4240.111","1280x720","1280x578","DiagramFeedback","DiagramFeedback","DiagramFeedback",2,"1",3,"Diagram","DiagBox4","response_text_area",48309.24,NA,NA,"yQevTK",NA,"MetroDiagramFeedback",NA
"59",1604405027405,1,"03/11/2020 13:03:47","BLIND",1683571,NA,"complete",NA,"5fa141cd0caca41eed982b1e","computer","Desktop or Laptop","Windows 10","Chrome 86.0.4240.111","1280x720","1280x578","DiagramFeedback","DiagramFeedback","DiagramFeedback",2,"1",3,"Diagram","DiagBox2","response_text_area",48309.24,NA,NA,"ui",NA,"MetroDiagramFeedback",NA
"6",1604404116364,1,"03/11/2020 12:48:36","BLIND",1683571,NA,"complete",NA,"5fa141cd0caca41eed982b1e","computer","Desktop or Laptop","Windows 10","Chrome 86.0.4240.111","1280x720","1280x578","DiagramFeedback","DiagramFeedback","DiagramFeedback",1,"1",3,"Screen 3","DiagBox3","response_text_area",48309.24,NA,NA,"e4mP",NA,"SportenDiagramFeedback",NA
"60",1604405027405,1,"03/11/2020 13:03:47","BLIND",1683571,NA,"complete",NA,"5fa141cd0caca41eed982b1e","computer","Desktop or Laptop","Windows 10","Chrome 86.0.4240.111","1280x720","1280x578","DiagramFeedback","DiagramFeedback","DiagramFeedback",2,"1",3,"Diagram","Zone1","continue_button",48309.24,NA,NA,"",NA,"MetroDiagramFeedback",NA
"61",1604405043855,1,"03/11/2020 13:04:03","BLIND",1683571,NA,"complete",NA,"5fa141cd0caca41eed982b1e","computer","Desktop or Laptop","Windows 10","Chrome 86.0.4240.111","1280x720","1280x578","DiagramFeedback","DiagramFeedback","DiagramFeedback",2,"1",4,"Feedback","Zone1","continue_button",48309.24,NA,NA,"",NA,"MetroDiagramFeedback",NA
"62",1604405052497,1,"03/11/2020 13:04:12","BLIND",1683571,NA,"complete",NA,"5fa141cd0caca41eed982b1e","computer","Desktop or Laptop","Windows 10","Chrome 86.0.4240.111","1280x720","1280x578","DiagramFeedback","DiagramFeedback","DiagramFeedback",2,"1",5,"JoL2","Four","response_button_text",48309.24,NA,NA,"4",1,"MetroDiagramFeedback",NA
"63",1604405053855,1,"03/11/2020 13:04:13","BLIND",1683571,NA,"complete",NA,"5fa141cd0caca41eed982b1e","computer","Desktop or Laptop","Windows 10","Chrome 86.0.4240.111","1280x720","1280x578","DiagramFeedback","DiagramFeedback","DiagramFeedback",2,"1",6,"InstructieToets","advancementZone","continue_button",48309.24,NA,NA,"",NA,"MetroDiagramFeedback",NA
"64",1604405137891,1,"03/11/2020 13:05:37","BLIND",1683571,NA,"complete",NA,"5fa141cd0caca41eed982b1e","computer","Desktop or Laptop","Windows 10","Chrome 86.0.4240.111","1280x720","1280x578","DiagramFeedback","DiagramFeedback","DiagramFeedback",2,"1",7,"Test","buttonA","response_text_area",48309.24,NA,NA,"unxA86j",NA,"MetroDiagramFeedback",NA
"65",1604405137894,1,"03/11/2020 13:05:37","BLIND",1683571,NA,"complete",NA,"5fa141cd0caca41eed982b1e","computer","Desktop or Laptop","Windows 10","Chrome 86.0.4240.111","1280x720","1280x578","DiagramFeedback","DiagramFeedback","DiagramFeedback",2,"1",7,"Test","buttonB","continue_button",48309.24,NA,NA,"",NA,"MetroDiagramFeedback",NA
"66",1604405139188,1,"03/11/2020 13:05:39","BLIND",1683571,NA,"complete",NA,"5fa141cd0caca41eed982b1e","computer","Desktop or Laptop","Windows 10","Chrome 86.0.4240.111","1280x720","1280x578","DiagramFeedback","DiagramFeedback","DiagramFeedback",9,"4",1,"ReadyForNext","advancementZone","continue_button",48309.24,NA,NA,"",NA,"ReadyForNextTextScreen",NA
"67",1604405190690,1,"03/11/2020 13:06:30","BLIND",1683571,NA,"complete",NA,"5fa141cd0caca41eed982b1e","computer","Desktop or Laptop","Windows 10","Chrome 86.0.4240.111","1280x720","1280x578","DiagramFeedback","DiagramFeedback","DiagramFeedback",6,"1",1,"Text","advancementZone","continue_button",48309.24,NA,NA,"",NA,"SuezDiagramFeedback",NA
"68",1604405192244,1,"03/11/2020 13:06:32","BLIND",1683571,NA,"complete",NA,"5fa141cd0caca41eed982b1e","computer","Desktop or Laptop","Windows 10","Chrome 86.0.4240.111","1280x720","1280x578","DiagramFeedback","DiagramFeedback","DiagramFeedback",6,"1",2,"JoL1","Two","response_button_text",48309.24,NA,NA,"4",1,"SuezDiagramFeedback",NA
"69",1604405269189,1,"03/11/2020 13:07:49","BLIND",1683571,NA,"complete",NA,"5fa141cd0caca41eed982b1e","computer","Desktop or Laptop","Windows 10","Chrome 86.0.4240.111","1280x720","1280x578","DiagramFeedback","DiagramFeedback","DiagramFeedback",6,"1",3,"Diagram","DiagBox2","response_text_area",48309.24,NA,NA,"q1PU2x",NA,"SuezDiagramFeedback",NA
"7",1604404116365,1,"03/11/2020 12:48:36","BLIND",1683571,NA,"complete",NA,"5fa141cd0caca41eed982b1e","computer","Desktop or Laptop","Windows 10","Chrome 86.0.4240.111","1280x720","1280x578","DiagramFeedback","DiagramFeedback","DiagramFeedback",1,"1",3,"Screen 3","DiagBox4","response_text_area",48309.24,NA,NA,"xN7",NA,"SportenDiagramFeedback",NA
"70",1604405269191,1,"03/11/2020 13:07:49","BLIND",1683571,NA,"complete",NA,"5fa141cd0caca41eed982b1e","computer","Desktop or Laptop","Windows 10","Chrome 86.0.4240.111","1280x720","1280x578","DiagramFeedback","DiagramFeedback","DiagramFeedback",6,"1",3,"Diagram","DiagBox3","response_text_area",48309.24,NA,NA,"Uxj",NA,"SuezDiagramFeedback",NA
"71",1604405269191,1,"03/11/2020 13:07:49","BLIND",1683571,NA,"complete",NA,"5fa141cd0caca41eed982b1e","computer","Desktop or Laptop","Windows 10","Chrome 86.0.4240.111","1280x720","1280x578","DiagramFeedback","DiagramFeedback","DiagramFeedback",6,"1",3,"Diagram","DiagBox4","response_text_area",48309.24,NA,NA,"Gykg",NA,"SuezDiagramFeedback",NA
"72",1604405269192,1,"03/11/2020 13:07:49","BLIND",1683571,NA,"complete",NA,"5fa141cd0caca41eed982b1e","computer","Desktop or Laptop","Windows 10","Chrome 86.0.4240.111","1280x720","1280x578","DiagramFeedback","DiagramFeedback","DiagramFeedback",6,"1",3,"Diagram","DiagBox1","response_text_area",48309.24,NA,NA,"SI5GhaFSGF",NA,"SuezDiagramFeedback",NA
"73",1604405269192,1,"03/11/2020 13:07:49","BLIND",1683571,NA,"complete",NA,"5fa141cd0caca41eed982b1e","computer","Desktop or Laptop","Windows 10","Chrome 86.0.4240.111","1280x720","1280x578","DiagramFeedback","DiagramFeedback","DiagramFeedback",6,"1",3,"Diagram","Zone1","continue_button",48309.24,NA,NA,"",NA,"SuezDiagramFeedback",NA
"74",1604405296943,1,"03/11/2020 13:08:16","BLIND",1683571,NA,"complete",NA,"5fa141cd0caca41eed982b1e","computer","Desktop or Laptop","Windows 10","Chrome 86.0.4240.111","1280x720","1280x578","DiagramFeedback","DiagramFeedback","DiagramFeedback",6,"1",4,"Feedback","Zone1","continue_button",48309.24,NA,NA,"",NA,"SuezDiagramFeedback",NA
"75",1604405299121,1,"03/11/2020 13:08:19","BLIND",1683571,NA,"complete",NA,"5fa141cd0caca41eed982b1e","computer","Desktop or Laptop","Windows 10","Chrome 86.0.4240.111","1280x720","1280x578","DiagramFeedback","DiagramFeedback","DiagramFeedback",6,"1",5,"JoL2","Three","response_button_text",48309.24,NA,NA,"4",1,"SuezDiagramFeedback",NA
"76",1604405300145,1,"03/11/2020 13:08:20","BLIND",1683571,NA,"complete",NA,"5fa141cd0caca41eed982b1e","computer","Desktop or Laptop","Windows 10","Chrome 86.0.4240.111","1280x720","1280x578","DiagramFeedback","DiagramFeedback","DiagramFeedback",6,"1",6,"InstructieToets","advancementZone","continue_button",48309.24,NA,NA,"",NA,"SuezDiagramFeedback",NA
"77",1604405370102,1,"03/11/2020 13:09:30","BLIND",1683571,NA,"complete",NA,"5fa141cd0caca41eed982b1e","computer","Desktop or Laptop","Windows 10","Chrome 86.0.4240.111","1280x720","1280x578","DiagramFeedback","DiagramFeedback","DiagramFeedback",6,"1",7,"Test","buttonA","response_text_area",48309.24,NA,NA,"qi",NA,"SuezDiagramFeedback",NA
"78",1604405370105,1,"03/11/2020 13:09:30","BLIND",1683571,NA,"complete",NA,"5fa141cd0caca41eed982b1e","computer","Desktop or Laptop","Windows 10","Chrome 86.0.4240.111","1280x720","1280x578","DiagramFeedback","DiagramFeedback","DiagramFeedback",6,"1",7,"Test","buttonB","continue_button",48309.24,NA,NA,"",NA,"SuezDiagramFeedback",NA
"79",1604405371449,1,"03/11/2020 13:09:31","BLIND",1683571,NA,"complete",NA,"5fa141cd0caca41eed982b1e","computer","Desktop or Laptop","Windows 10","Chrome 86.0.4240.111","1280x720","1280x578","DiagramFeedback","DiagramFeedback","DiagramFeedback",11,"5",1,"ReadyForNext","advancementZone","continue_button",48309.24,NA,NA,"",NA,"ReadyForNextTextScreen",NA
"8",1604404116365,1,"03/11/2020 12:48:36","BLIND",1683571,NA,"complete",NA,"5fa141cd0caca41eed982b1e","computer","Desktop or Laptop","Windows 10","Chrome 86.0.4240.111","1280x720","1280x578","DiagramFeedback","DiagramFeedback","DiagramFeedback",1,"1",3,"Screen 3","Zone1","continue_button",48309.24,NA,NA,"",NA,"SportenDiagramFeedback",NA
"80",1604405452148,1,"03/11/2020 13:10:52","BLIND",1683571,NA,"complete",NA,"5fa141cd0caca41eed982b1e","computer","Desktop or Laptop","Windows 10","Chrome 86.0.4240.111","1280x720","1280x578","DiagramFeedback","DiagramFeedback","DiagramFeedback",12,"1",1,"Text","advancementZone","continue_button",48309.24,NA,NA,"",NA,"GeldDiagramFeedback",NA
"81",1604405453404,1,"03/11/2020 13:10:53","BLIND",1683571,NA,"complete",NA,"5fa141cd0caca41eed982b1e","computer","Desktop or Laptop","Windows 10","Chrome 86.0.4240.111","1280x720","1280x578","DiagramFeedback","DiagramFeedback","DiagramFeedback",12,"1",2,"JoL1","Two","response_button_text",48309.24,NA,NA,"4",1,"GeldDiagramFeedback",NA
"82",1604405529540,1,"03/11/2020 13:12:09","BLIND",1683571,NA,"complete",NA,"5fa141cd0caca41eed982b1e","computer","Desktop or Laptop","Windows 10","Chrome 86.0.4240.111","1280x720","1280x578","DiagramFeedback","DiagramFeedback","DiagramFeedback",12,"1",3,"Diagram","DiagBox2","response_text_area",48309.24,NA,NA,"78Xl",NA,"GeldDiagramFeedback",NA
"83",1604405529543,1,"03/11/2020 13:12:09","BLIND",1683571,NA,"complete",NA,"5fa141cd0caca41eed982b1e","computer","Desktop or Laptop","Windows 10","Chrome 86.0.4240.111","1280x720","1280x578","DiagramFeedback","DiagramFeedback","DiagramFeedback",12,"1",3,"Diagram","DiagBox3","response_text_area",48309.24,NA,NA,"51fdmwdP",NA,"GeldDiagramFeedback",NA
"84",1604405529544,1,"03/11/2020 13:12:09","BLIND",1683571,NA,"complete",NA,"5fa141cd0caca41eed982b1e","computer","Desktop or Laptop","Windows 10","Chrome 86.0.4240.111","1280x720","1280x578","DiagramFeedback","DiagramFeedback","DiagramFeedback",12,"1",3,"Diagram","DiagBox4","response_text_area",48309.24,NA,NA,"KqIvp8Z0WK",NA,"GeldDiagramFeedback",NA
"85",1604405529545,1,"03/11/2020 13:12:09","BLIND",1683571,NA,"complete",NA,"5fa141cd0caca41eed982b1e","computer","Desktop or Laptop","Windows 10","Chrome 86.0.4240.111","1280x720","1280x578","DiagramFeedback","DiagramFeedback","DiagramFeedback",12,"1",3,"Diagram","DiagBox1","response_text_area",48309.24,NA,NA,"YTJzSNt",NA,"GeldDiagramFeedback",NA
"86",1604405529545,1,"03/11/2020 13:12:09","BLIND",1683571,NA,"complete",NA,"5fa141cd0caca41eed982b1e","computer","Desktop or Laptop","Windows 10","Chrome 86.0.4240.111","1280x720","1280x578","DiagramFeedback","DiagramFeedback","DiagramFeedback",12,"1",3,"Diagram","Zone1","continue_button",48309.24,NA,NA,"",NA,"GeldDiagramFeedback",NA
"87",1604405595391,1,"03/11/2020 13:13:15","BLIND",1683571,NA,"complete",NA,"5fa141cd0caca41eed982b1e","computer","Desktop or Laptop","Windows 10","Chrome 86.0.4240.111","1280x720","1280x578","DiagramFeedback","DiagramFeedback","DiagramFeedback",12,"1",4,"Feedback","Zone1","continue_button",48309.24,NA,NA,"",NA,"GeldDiagramFeedback",NA
"88",1604405596581,1,"03/11/2020 13:13:16","BLIND",1683571,NA,"complete",NA,"5fa141cd0caca41eed982b1e","computer","Desktop or Laptop","Windows 10","Chrome 86.0.4240.111","1280x720","1280x578","DiagramFeedback","DiagramFeedback","DiagramFeedback",12,"1",5,"JoL2","Three","response_button_text",48309.24,NA,NA,"4",1,"GeldDiagramFeedback",NA
"89",1604405597625,1,"03/11/2020 13:13:17","BLIND",1683571,NA,"complete",NA,"5fa141cd0caca41eed982b1e","computer","Desktop or Laptop","Windows 10","Chrome 86.0.4240.111","1280x720","1280x578","DiagramFeedback","DiagramFeedback","DiagramFeedback",12,"1",6,"InstructieToets","advancementZone","continue_button",48309.24,NA,NA,"",NA,"GeldDiagramFeedback",NA
"9",1604404129257,1,"03/11/2020 12:48:49","BLIND",1683571,NA,"complete",NA,"5fa141cd0caca41eed982b1e","computer","Desktop or Laptop","Windows 10","Chrome 86.0.4240.111","1280x720","1280x578","DiagramFeedback","DiagramFeedback","DiagramFeedback",1,"1",4,"Feedback","Zone1","continue_button",48309.24,NA,NA,"",NA,"SportenDiagramFeedback",NA
"90",1604405665613,1,"03/11/2020 13:14:25","BLIND",1683571,NA,"complete",NA,"5fa141cd0caca41eed982b1e","computer","Desktop or Laptop","Windows 10","Chrome 86.0.4240.111","1280x720","1280x578","DiagramFeedback","DiagramFeedback","DiagramFeedback",12,"1",7,"Test","buttonA","response_text_area",48309.24,NA,NA,"Zm4M8QDARB",NA,"GeldDiagramFeedback",NA
"91",1604405665615,1,"03/11/2020 13:14:25","BLIND",1683571,NA,"complete",NA,"5fa141cd0caca41eed982b1e","computer","Desktop or Laptop","Windows 10","Chrome 86.0.4240.111","1280x720","1280x578","DiagramFeedback","DiagramFeedback","DiagramFeedback",12,"1",7,"Test","buttonB","continue_button",48309.24,NA,NA,"",NA,"GeldDiagramFeedback",NA
"92",1604405665622,1,"03/11/2020 13:14:25","BLIND",1683571,NA,"complete",NA,"5fa141cd0caca41eed982b1e","computer","Desktop or Laptop","Windows 10","Chrome 86.0.4240.111","1280x720","1280x578","DiagramFeedback","DiagramFeedback","",NA,"END TASK",NA,"","","",1675930,NA,NA,"",NA,"",NA
"1",1604605733445,1,"05/11/2020 20:48:53","BLIND",2495352,NA,"complete",NA,"5fa4563a81c7720aa07d2f3b","computer","Desktop or Laptop","Windows 10","Chrome 86.0.4240.183","1536x864","1536x722","DiagramFeedback","DiagramFeedback","",NA,"BEGIN TASK",NA,"","","",NA,NA,NA,"",NA,"",NA
"10",1604605836447,1,"05/11/2020 20:50:36","BLIND",2495352,NA,"complete",NA,"5fa4563a81c7720aa07d2f3b","computer","Desktop or Laptop","Windows 10","Chrome 86.0.4240.183","1536x864","1536x722","DiagramFeedback","DiagramFeedback","DiagramFeedback",1,"1",5,"JoL2","Four","response_button_text",48309.24,NA,NA,"4",1,"SportenDiagramFeedback",NA
"11",1604605837607,1,"05/11/2020 20:50:37","BLIND",2495352,NA,"complete",NA,"5fa4563a81c7720aa07d2f3b","computer","Desktop or Laptop","Windows 10","Chrome 86.0.4240.183","1536x864","1536x722","DiagramFeedback","DiagramFeedback","DiagramFeedback",1,"1",6,"InstructieToets","advancementZone","continue_button",48309.24,NA,NA,"",NA,"SportenDiagramFeedback",NA
"12",1604605907248,1,"05/11/2020 20:51:47","BLIND",2495352,NA,"complete",NA,"5fa4563a81c7720aa07d2f3b","computer","Desktop or Laptop","Windows 10","Chrome 86.0.4240.183","1536x864","1536x722","DiagramFeedback","DiagramFeedback","DiagramFeedback",1,"1",7,"Test","buttonA","response_text_area",48309.24,NA,NA,"GrjTliV",NA,"SportenDiagramFeedback",NA
"13",1604605907249,1,"05/11/2020 20:51:47","BLIND",2495352,NA,"complete",NA,"5fa4563a81c7720aa07d2f3b","computer","Desktop or Laptop","Windows 10","Chrome 86.0.4240.183","1536x864","1536x722","DiagramFeedback","DiagramFeedback","DiagramFeedback",1,"1",7,"Test","buttonB","continue_button",48309.24,NA,NA,"",NA,"SportenDiagramFeedback",NA
"14",1604605908824,1,"05/11/2020 20:51:48","BLIND",2495352,NA,"complete",NA,"5fa4563a81c7720aa07d2f3b","computer","Desktop or Laptop","Windows 10","Chrome 86.0.4240.183","1536x864","1536x722","DiagramFeedback","DiagramFeedback","DiagramFeedback",1,"1",8,"Klaar4Experiment","advancementZone","continue_button",48309.24,NA,NA,"",NA,"SportenDiagramFeedback",NA
"15",1604605942808,1,"05/11/2020 20:52:22","BLIND",2495352,NA,"complete",NA,"5fa4563a81c7720aa07d2f3b","computer","Desktop or Laptop","Windows 10","Chrome 86.0.4240.183","1536x864","1536x722","DiagramFeedback","DiagramFeedback","DiagramFeedback",4,"1",1,"Text","advancementZone","continue_button",48309.24,NA,NA,"",NA,"BetonDiagramFeedback",NA
"16",1604605944776,1,"05/11/2020 20:52:24","BLIND",2495352,NA,"complete",NA,"5fa4563a81c7720aa07d2f3b","computer","Desktop or Laptop","Windows 10","Chrome 86.0.4240.183","1536x864","1536x722","DiagramFeedback","DiagramFeedback","DiagramFeedback",4,"1",2,"JoL1","Two","response_button_text",48309.24,NA,NA,"4",1,"BetonDiagramFeedback",NA
"17",1604606011641,1,"05/11/2020 20:53:31","BLIND",2495352,NA,"complete",NA,"5fa4563a81c7720aa07d2f3b","computer","Desktop or Laptop","Windows 10","Chrome 86.0.4240.183","1536x864","1536x722","DiagramFeedback","DiagramFeedback","DiagramFeedback",4,"1",3,"Diagram","DiagBox2","response_text_area",48309.24,NA,NA,"wvb9m",NA,"BetonDiagramFeedback",NA
"18",1604606011643,1,"05/11/2020 20:53:31","BLIND",2495352,NA,"complete",NA,"5fa4563a81c7720aa07d2f3b","computer","Desktop or Laptop","Windows 10","Chrome 86.0.4240.183","1536x864","1536x722","DiagramFeedback","DiagramFeedback","DiagramFeedback",4,"1",3,"Diagram","DiagBox3","response_text_area",48309.24,NA,NA,"8Lo",NA,"BetonDiagramFeedback",NA
"19",1604606011643,1,"05/11/2020 20:53:31","BLIND",2495352,NA,"complete",NA,"5fa4563a81c7720aa07d2f3b","computer","Desktop or Laptop","Windows 10","Chrome 86.0.4240.183","1536x864","1536x722","DiagramFeedback","DiagramFeedback","DiagramFeedback",4,"1",3,"Diagram","DiagBox4","response_text_area",48309.24,NA,NA,"jTdcF0IPwY",NA,"BetonDiagramFeedback",NA
"2",1604605766176,1,"05/11/2020 20:49:26","BLIND",2495352,NA,"complete",NA,"5fa4563a81c7720aa07d2f3b","computer","Desktop or Laptop","Windows 10","Chrome 86.0.4240.183","1536x864","1536x722","DiagramFeedback","DiagramFeedback","DiagramFeedback",1,"1",1,"Text","advancementZone","continue_button",48309.24,NA,NA,"",NA,"SportenDiagramFeedback",NA
"20",1604606011644,1,"05/11/2020 20:53:31","BLIND",2495352,NA,"complete",NA,"5fa4563a81c7720aa07d2f3b","computer","Desktop or Laptop","Windows 10","Chrome 86.0.4240.183","1536x864","1536x722","DiagramFeedback","DiagramFeedback","DiagramFeedback",4,"1",3,"Diagram","DiagBox1","response_text_area",48309.24,NA,NA,"fFsJ",NA,"BetonDiagramFeedback",NA
"21",1604606011644,1,"05/11/2020 20:53:31","BLIND",2495352,NA,"complete",NA,"5fa4563a81c7720aa07d2f3b","computer","Desktop or Laptop","Windows 10","Chrome 86.0.4240.183","1536x864","1536x722","DiagramFeedback","DiagramFeedback","DiagramFeedback",4,"1",3,"Diagram","Zone1","continue_button",48309.24,NA,NA,"",NA,"BetonDiagramFeedback",NA
"22",1604606027247,1,"05/11/2020 20:53:47","BLIND",2495352,NA,"complete",NA,"5fa4563a81c7720aa07d2f3b","computer","Desktop or Laptop","Windows 10","Chrome 86.0.4240.183","1536x864","1536x722","DiagramFeedback","DiagramFeedback","DiagramFeedback",4,"1",4,"Feedback","Zone1","continue_button",48309.24,NA,NA,"",NA,"BetonDiagramFeedback",NA
"23",1604606028128,1,"05/11/2020 20:53:48","BLIND",2495352,NA,"complete",NA,"5fa4563a81c7720aa07d2f3b","computer","Desktop or Laptop","Windows 10","Chrome 86.0.4240.183","1536x864","1536x722","DiagramFeedback","DiagramFeedback","DiagramFeedback",4,"1",5,"JoL2","Four","response_button_text",48309.24,NA,NA,"4",1,"BetonDiagramFeedback",NA
"24",1604606029359,1,"05/11/2020 20:53:49","BLIND",2495352,NA,"complete",NA,"5fa4563a81c7720aa07d2f3b","computer","Desktop or Laptop","Windows 10","Chrome 86.0.4240.183","1536x864","1536x722","DiagramFeedback","DiagramFeedback","DiagramFeedback",4,"1",6,"InstructieToets","advancementZone","continue_button",48309.24,NA,NA,"",NA,"BetonDiagramFeedback",NA
"25",1604606093336,1,"05/11/2020 20:54:53","BLIND",2495352,NA,"complete",NA,"5fa4563a81c7720aa07d2f3b","computer","Desktop or Laptop","Windows 10","Chrome 86.0.4240.183","1536x864","1536x722","DiagramFeedback","DiagramFeedback","DiagramFeedback",4,"1",7,"Test","buttonA","response_text_area",48309.24,NA,NA,"nj47n0Qc",NA,"BetonDiagramFeedback",NA
"26",1604606093337,1,"05/11/2020 20:54:53","BLIND",2495352,NA,"complete",NA,"5fa4563a81c7720aa07d2f3b","computer","Desktop or Laptop","Windows 10","Chrome 86.0.4240.183","1536x864","1536x722","DiagramFeedback","DiagramFeedback","DiagramFeedback",4,"1",7,"Test","buttonB","continue_button",48309.24,NA,NA,"",NA,"BetonDiagramFeedback",NA
"27",1604606095863,1,"05/11/2020 20:54:55","BLIND",2495352,NA,"complete",NA,"5fa4563a81c7720aa07d2f3b","computer","Desktop or Laptop","Windows 10","Chrome 86.0.4240.183","1536x864","1536x722","DiagramFeedback","DiagramFeedback","DiagramFeedback",3,"1",1,"ReadyForNext","advancementZone","continue_button",48309.24,NA,NA,"",NA,"ReadyForNextTextScreen",NA
"28",1604606123592,1,"05/11/2020 20:55:23","BLIND",2495352,NA,"complete",NA,"5fa4563a81c7720aa07d2f3b","computer","Desktop or Laptop","Windows 10","Chrome 86.0.4240.183","1536x864","1536x722","DiagramFeedback","DiagramFeedback","DiagramFeedback",2,"1",1,"Text","advancementZone","continue_button",48309.24,NA,NA,"",NA,"MetroDiagramFeedback",NA
"29",1604606125207,1,"05/11/2020 20:55:25","BLIND",2495352,NA,"complete",NA,"5fa4563a81c7720aa07d2f3b","computer","Desktop or Laptop","Windows 10","Chrome 86.0.4240.183","1536x864","1536x722","DiagramFeedback","DiagramFeedback","DiagramFeedback",2,"1",2,"JoL1","Three","response_button_text",48309.24,NA,NA,"4",1,"MetroDiagramFeedback",NA
"3",1604605770832,1,"05/11/2020 20:49:30","BLIND",2495352,NA,"complete",NA,"5fa4563a81c7720aa07d2f3b","computer","Desktop or Laptop","Windows 10","Chrome 86.0.4240.183","1536x864","1536x722","DiagramFeedback","DiagramFeedback","DiagramFeedback",1,"1",2,"JoL1","Three","response_button_text",48309.24,NA,NA,"4",1,"SportenDiagramFeedback",NA
"30",1604606184721,1,"05/11/2020 20:56:24","BLIND",2495352,NA,"complete",NA,"5fa4563a81c7720aa07d2f3b","computer","Desktop or Laptop","Windows 10","Chrome 86.0.4240.183","1536x864","1536x722","DiagramFeedback","DiagramFeedback","DiagramFeedback",2,"1",3,"Diagram","DiagBox1","response_text_area",48309.24,NA,NA,"FyK5TGL",NA,"MetroDiagramFeedback",NA
"31",1604606184722,1,"05/11/2020 20:56:24","BLIND",2495352,NA,"complete",NA,"5fa4563a81c7720aa07d2f3b","computer","Desktop or Laptop","Windows 10","Chrome 86.0.4240.183","1536x864","1536x722","DiagramFeedback","DiagramFeedback","DiagramFeedback",2,"1",3,"Diagram","DiagBox3","response_text_area",48309.24,NA,NA,"ZM0N56",NA,"MetroDiagramFeedback",NA
"32",1604606184723,1,"05/11/2020 20:56:24","BLIND",2495352,NA,"complete",NA,"5fa4563a81c7720aa07d2f3b","computer","Desktop or Laptop","Windows 10","Chrome 86.0.4240.183","1536x864","1536x722","DiagramFeedback","DiagramFeedback","DiagramFeedback",2,"1",3,"Diagram","DiagBox4","response_text_area",48309.24,NA,NA,"?",NA,"MetroDiagramFeedback",NA
"33",1604606184723,1,"05/11/2020 20:56:24","BLIND",2495352,NA,"complete",NA,"5fa4563a81c7720aa07d2f3b","computer","Desktop or Laptop","Windows 10","Chrome 86.0.4240.183","1536x864","1536x722","DiagramFeedback","DiagramFeedback","DiagramFeedback",2,"1",3,"Diagram","DiagBox2","response_text_area",48309.24,NA,NA,"UpuQHyDQ3",NA,"MetroDiagramFeedback",NA
"34",1604606184723,1,"05/11/2020 20:56:24","BLIND",2495352,NA,"complete",NA,"5fa4563a81c7720aa07d2f3b","computer","Desktop or Laptop","Windows 10","Chrome 86.0.4240.183","1536x864","1536x722","DiagramFeedback","DiagramFeedback","DiagramFeedback",2,"1",3,"Diagram","Zone1","continue_button",48309.24,NA,NA,"",NA,"MetroDiagramFeedback",NA
"35",1604606196367,1,"05/11/2020 20:56:36","BLIND",2495352,NA,"complete",NA,"5fa4563a81c7720aa07d2f3b","computer","Desktop or Laptop","Windows 10","Chrome 86.0.4240.183","1536x864","1536x722","DiagramFeedback","DiagramFeedback","DiagramFeedback",2,"1",4,"Feedback","Zone1","continue_button",48309.24,NA,NA,"",NA,"MetroDiagramFeedback",NA
"36",1604606197455,1,"05/11/2020 20:56:37","BLIND",2495352,NA,"complete",NA,"5fa4563a81c7720aa07d2f3b","computer","Desktop or Laptop","Windows 10","Chrome 86.0.4240.183","1536x864","1536x722","DiagramFeedback","DiagramFeedback","DiagramFeedback",2,"1",5,"JoL2","Four","response_button_text",48309.24,NA,NA,"4",1,"MetroDiagramFeedback",NA
"37",1604606198455,1,"05/11/2020 20:56:38","BLIND",2495352,NA,"complete",NA,"5fa4563a81c7720aa07d2f3b","computer","Desktop or Laptop","Windows 10","Chrome 86.0.4240.183","1536x864","1536x722","DiagramFeedback","DiagramFeedback","DiagramFeedback",2,"1",6,"InstructieToets","advancementZone","continue_button",48309.24,NA,NA,"",NA,"MetroDiagramFeedback",NA
"38",1604606255640,1,"05/11/2020 20:57:35","BLIND",2495352,NA,"complete",NA,"5fa4563a81c7720aa07d2f3b","computer","Desktop or Laptop","Windows 10","Chrome 86.0.4240.183","1536x864","1536x722","DiagramFeedback","DiagramFeedback","DiagramFeedback",2,"1",7,"Test","buttonA","response_text_area",48309.24,NA,NA,"9bf",NA,"MetroDiagramFeedback",NA
"39",1604606255641,1,"05/11/2020 20:57:35","BLIND",2495352,NA,"complete",NA,"5fa4563a81c7720aa07d2f3b","computer","Desktop or Laptop","Windows 10","Chrome 86.0.4240.183","1536x864","1536x722","DiagramFeedback","DiagramFeedback","DiagramFeedback",2,"1",7,"Test","buttonB","continue_button",48309.24,NA,NA,"",NA,"MetroDiagramFeedback",NA
"4",1604605816535,1,"05/11/2020 20:50:16","BLIND",2495352,NA,"complete",NA,"5fa4563a81c7720aa07d2f3b","computer","Desktop or Laptop","Windows 10","Chrome 86.0.4240.183","1536x864","1536x722","DiagramFeedback","DiagramFeedback","DiagramFeedback",1,"1",3,"Screen 3","DiagBox1","response_text_area",48309.24,NA,NA,"8TE7UEC",NA,"SportenDiagramFeedback",NA
"40",1604606264479,1,"05/11/2020 20:57:44","BLIND",2495352,NA,"complete",NA,"5fa4563a81c7720aa07d2f3b","computer","Desktop or Laptop","Windows 10","Chrome 86.0.4240.183","1536x864","1536x722","DiagramFeedback","DiagramFeedback","DiagramFeedback",5,"2",1,"ReadyForNext","advancementZone","continue_button",48309.24,NA,NA,"",NA,"ReadyForNextTextScreen",NA
"41",1604606289952,1,"05/11/2020 20:58:09","BLIND",2495352,NA,"complete",NA,"5fa4563a81c7720aa07d2f3b","computer","Desktop or Laptop","Windows 10","Chrome 86.0.4240.183","1536x864","1536x722","DiagramFeedback","DiagramFeedback","DiagramFeedback",8,"1",1,"Text","advancementZone","continue_button",48309.24,NA,NA,"",NA,"BotoxDiagramFeedback",NA
"42",1604606293111,1,"05/11/2020 20:58:13","BLIND",2495352,NA,"complete",NA,"5fa4563a81c7720aa07d2f3b","computer","Desktop or Laptop","Windows 10","Chrome 86.0.4240.183","1536x864","1536x722","DiagramFeedback","DiagramFeedback","DiagramFeedback",8,"1",2,"JoL1","Two","response_button_text",48309.24,NA,NA,"4",1,"BotoxDiagramFeedback",NA
"43",1604606347921,1,"05/11/2020 20:59:07","BLIND",2495352,NA,"complete",NA,"5fa4563a81c7720aa07d2f3b","computer","Desktop or Laptop","Windows 10","Chrome 86.0.4240.183","1536x864","1536x722","DiagramFeedback","DiagramFeedback","DiagramFeedback",8,"1",3,"Diagram","DiagBox3","response_text_area",48309.24,NA,NA,"Uc",NA,"BotoxDiagramFeedback",NA
"44",1604606347923,1,"05/11/2020 20:59:07","BLIND",2495352,NA,"complete",NA,"5fa4563a81c7720aa07d2f3b","computer","Desktop or Laptop","Windows 10","Chrome 86.0.4240.183","1536x864","1536x722","DiagramFeedback","DiagramFeedback","DiagramFeedback",8,"1",3,"Diagram","DiagBox4","response_text_area",48309.24,NA,NA,"jx",NA,"BotoxDiagramFeedback",NA
"45",1604606347924,1,"05/11/2020 20:59:07","BLIND",2495352,NA,"complete",NA,"5fa4563a81c7720aa07d2f3b","computer","Desktop or Laptop","Windows 10","Chrome 86.0.4240.183","1536x864","1536x722","DiagramFeedback","DiagramFeedback","DiagramFeedback",8,"1",3,"Diagram","DiagBox2","response_text_area",48309.24,NA,NA,"?",NA,"BotoxDiagramFeedback",NA
"46",1604606347924,1,"05/11/2020 20:59:07","BLIND",2495352,NA,"complete",NA,"5fa4563a81c7720aa07d2f3b","computer","Desktop or Laptop","Windows 10","Chrome 86.0.4240.183","1536x864","1536x722","DiagramFeedback","DiagramFeedback","DiagramFeedback",8,"1",3,"Diagram","DiagBox1","response_text_area",48309.24,NA,NA,"dula",NA,"BotoxDiagramFeedback",NA
"47",1604606347924,1,"05/11/2020 20:59:07","BLIND",2495352,NA,"complete",NA,"5fa4563a81c7720aa07d2f3b","computer","Desktop or Laptop","Windows 10","Chrome 86.0.4240.183","1536x864","1536x722","DiagramFeedback","DiagramFeedback","DiagramFeedback",8,"1",3,"Diagram","Zone1","continue_button",48309.24,NA,NA,"",NA,"BotoxDiagramFeedback",NA
"48",1604606356695,1,"05/11/2020 20:59:16","BLIND",2495352,NA,"complete",NA,"5fa4563a81c7720aa07d2f3b","computer","Desktop or Laptop","Windows 10","Chrome 86.0.4240.183","1536x864","1536x722","DiagramFeedback","DiagramFeedback","DiagramFeedback",8,"1",4,"Feedback","Zone1","continue_button",48309.24,NA,NA,"",NA,"BotoxDiagramFeedback",NA
"49",1604606358063,1,"05/11/2020 20:59:18","BLIND",2495352,NA,"complete",NA,"5fa4563a81c7720aa07d2f3b","computer","Desktop or Laptop","Windows 10","Chrome 86.0.4240.183","1536x864","1536x722","DiagramFeedback","DiagramFeedback","DiagramFeedback",8,"1",5,"JoL2","Four","response_button_text",48309.24,NA,NA,"4",1,"BotoxDiagramFeedback",NA
"5",1604605816538,1,"05/11/2020 20:50:16","BLIND",2495352,NA,"complete",NA,"5fa4563a81c7720aa07d2f3b","computer","Desktop or Laptop","Windows 10","Chrome 86.0.4240.183","1536x864","1536x722","DiagramFeedback","DiagramFeedback","DiagramFeedback",1,"1",3,"Screen 3","DiagBox2","response_text_area",48309.24,NA,NA,"cYi",NA,"SportenDiagramFeedback",NA
"50",1604606359047,1,"05/11/2020 20:59:19","BLIND",2495352,NA,"complete",NA,"5fa4563a81c7720aa07d2f3b","computer","Desktop or Laptop","Windows 10","Chrome 86.0.4240.183","1536x864","1536x722","DiagramFeedback","DiagramFeedback","DiagramFeedback",8,"1",6,"InstructieToets","advancementZone","continue_button",48309.24,NA,NA,"",NA,"BotoxDiagramFeedback",NA
"51",1604606402712,1,"05/11/2020 21:00:02","BLIND",2495352,NA,"complete",NA,"5fa4563a81c7720aa07d2f3b","computer","Desktop or Laptop","Windows 10","Chrome 86.0.4240.183","1536x864","1536x722","DiagramFeedback","DiagramFeedback","DiagramFeedback",8,"1",7,"Test","buttonA","response_text_area",48309.24,NA,NA,"Gks2tZ",NA,"BotoxDiagramFeedback",NA
"52",1604606402713,1,"05/11/2020 21:00:02","BLIND",2495352,NA,"complete",NA,"5fa4563a81c7720aa07d2f3b","computer","Desktop or Laptop","Windows 10","Chrome 86.0.4240.183","1536x864","1536x722","DiagramFeedback","DiagramFeedback","DiagramFeedback",8,"1",7,"Test","buttonB","continue_button",48309.24,NA,NA,"",NA,"BotoxDiagramFeedback",NA
"53",1604606404903,1,"05/11/2020 21:00:04","BLIND",2495352,NA,"complete",NA,"5fa4563a81c7720aa07d2f3b","computer","Desktop or Laptop","Windows 10","Chrome 86.0.4240.183","1536x864","1536x722","DiagramFeedback","DiagramFeedback","DiagramFeedback",7,"3",1,"ReadyForNext","advancementZone","continue_button",48309.24,NA,NA,"",NA,"ReadyForNextTextScreen",NA
"54",1604606423535,1,"05/11/2020 21:00:23","BLIND",2495352,NA,"complete",NA,"5fa4563a81c7720aa07d2f3b","computer","Desktop or Laptop","Windows 10","Chrome 86.0.4240.183","1536x864","1536x722","DiagramFeedback","DiagramFeedback","DiagramFeedback",6,"1",1,"Text","advancementZone","continue_button",48309.24,NA,NA,"",NA,"SuezDiagramFeedback",NA
"55",1604606424215,1,"05/11/2020 21:00:24","BLIND",2495352,NA,"complete",NA,"5fa4563a81c7720aa07d2f3b","computer","Desktop or Laptop","Windows 10","Chrome 86.0.4240.183","1536x864","1536x722","DiagramFeedback","DiagramFeedback","DiagramFeedback",6,"1",2,"JoL1","Two","response_button_text",48309.24,NA,NA,"4",1,"SuezDiagramFeedback",NA
"56",1604606451744,1,"05/11/2020 21:00:51","BLIND",2495352,NA,"complete",NA,"5fa4563a81c7720aa07d2f3b","computer","Desktop or Laptop","Windows 10","Chrome 86.0.4240.183","1536x864","1536x722","DiagramFeedback","DiagramFeedback","DiagramFeedback",6,"1",3,"Diagram","DiagBox2","response_text_area",48309.24,NA,NA,"?",NA,"SuezDiagramFeedback",NA
"57",1604606451745,1,"05/11/2020 21:00:51","BLIND",2495352,NA,"complete",NA,"5fa4563a81c7720aa07d2f3b","computer","Desktop or Laptop","Windows 10","Chrome 86.0.4240.183","1536x864","1536x722","DiagramFeedback","DiagramFeedback","DiagramFeedback",6,"1",3,"Diagram","DiagBox3","response_text_area",48309.24,NA,NA,"?",NA,"SuezDiagramFeedback",NA
"58",1604606451745,1,"05/11/2020 21:00:51","BLIND",2495352,NA,"complete",NA,"5fa4563a81c7720aa07d2f3b","computer","Desktop or Laptop","Windows 10","Chrome 86.0.4240.183","1536x864","1536x722","DiagramFeedback","DiagramFeedback","DiagramFeedback",6,"1",3,"Diagram","DiagBox4","response_text_area",48309.24,NA,NA,"lP",NA,"SuezDiagramFeedback",NA
"59",1604606451746,1,"05/11/2020 21:00:51","BLIND",2495352,NA,"complete",NA,"5fa4563a81c7720aa07d2f3b","computer","Desktop or Laptop","Windows 10","Chrome 86.0.4240.183","1536x864","1536x722","DiagramFeedback","DiagramFeedback","DiagramFeedback",6,"1",3,"Diagram","DiagBox1","response_text_area",48309.24,NA,NA,"tdQN",NA,"SuezDiagramFeedback",NA
"6",1604605816538,1,"05/11/2020 20:50:16","BLIND",2495352,NA,"complete",NA,"5fa4563a81c7720aa07d2f3b","computer","Desktop or Laptop","Windows 10","Chrome 86.0.4240.183","1536x864","1536x722","DiagramFeedback","DiagramFeedback","DiagramFeedback",1,"1",3,"Screen 3","DiagBox3","response_text_area",48309.24,NA,NA,"TYeJtLG",NA,"SportenDiagramFeedback",NA
"60",1604606451746,1,"05/11/2020 21:00:51","BLIND",2495352,NA,"complete",NA,"5fa4563a81c7720aa07d2f3b","computer","Desktop or Laptop","Windows 10","Chrome 86.0.4240.183","1536x864","1536x722","DiagramFeedback","DiagramFeedback","DiagramFeedback",6,"1",3,"Diagram","Zone1","continue_button",48309.24,NA,NA,"",NA,"SuezDiagramFeedback",NA
"61",1604606456471,1,"05/11/2020 21:00:56","BLIND",2495352,NA,"complete",NA,"5fa4563a81c7720aa07d2f3b","computer","Desktop or Laptop","Windows 10","Chrome 86.0.4240.183","1536x864","1536x722","DiagramFeedback","DiagramFeedback","DiagramFeedback",6,"1",4,"Feedback","Zone1","continue_button",48309.24,NA,NA,"",NA,"SuezDiagramFeedback",NA
"62",1604606457151,1,"05/11/2020 21:00:57","BLIND",2495352,NA,"complete",NA,"5fa4563a81c7720aa07d2f3b","computer","Desktop or Laptop","Windows 10","Chrome 86.0.4240.183","1536x864","1536x722","DiagramFeedback","DiagramFeedback","DiagramFeedback",6,"1",5,"JoL2","Three","response_button_text",48309.24,NA,NA,"4",1,"SuezDiagramFeedback",NA
"63",1604606458264,1,"05/11/2020 21:00:58","BLIND",2495352,NA,"complete",NA,"5fa4563a81c7720aa07d2f3b","computer","Desktop or Laptop","Windows 10","Chrome 86.0.4240.183","1536x864","1536x722","DiagramFeedback","DiagramFeedback","DiagramFeedback",6,"1",6,"InstructieToets","advancementZone","continue_button",48309.24,NA,NA,"",NA,"SuezDiagramFeedback",NA
"64",1604606510167,1,"05/11/2020 21:01:50","BLIND",2495352,NA,"complete",NA,"5fa4563a81c7720aa07d2f3b","computer","Desktop or Laptop","Windows 10","Chrome 86.0.4240.183","1536x864","1536x722","DiagramFeedback","DiagramFeedback","DiagramFeedback",6,"1",7,"Test","buttonA","response_text_area",48309.24,NA,NA,"GhE8F6pw",NA,"SuezDiagramFeedback",NA
"65",1604606510169,1,"05/11/2020 21:01:50","BLIND",2495352,NA,"complete",NA,"5fa4563a81c7720aa07d2f3b","computer","Desktop or Laptop","Windows 10","Chrome 86.0.4240.183","1536x864","1536x722","DiagramFeedback","DiagramFeedback","DiagramFeedback",6,"1",7,"Test","buttonB","continue_button",48309.24,NA,NA,"",NA,"SuezDiagramFeedback",NA
"66",1604606511823,1,"05/11/2020 21:01:51","BLIND",2495352,NA,"complete",NA,"5fa4563a81c7720aa07d2f3b","computer","Desktop or Laptop","Windows 10","Chrome 86.0.4240.183","1536x864","1536x722","DiagramFeedback","DiagramFeedback","DiagramFeedback",9,"4",1,"ReadyForNext","advancementZone","continue_button",48309.24,NA,NA,"",NA,"ReadyForNextTextScreen",NA
"67",1604606539439,1,"05/11/2020 21:02:19","BLIND",2495352,NA,"complete",NA,"5fa4563a81c7720aa07d2f3b","computer","Desktop or Laptop","Windows 10","Chrome 86.0.4240.183","1536x864","1536x722","DiagramFeedback","DiagramFeedback","DiagramFeedback",12,"1",1,"Text","advancementZone","continue_button",48309.24,NA,NA,"",NA,"GeldDiagramFeedback",NA
"68",1604606540767,1,"05/11/2020 21:02:20","BLIND",2495352,NA,"complete",NA,"5fa4563a81c7720aa07d2f3b","computer","Desktop or Laptop","Windows 10","Chrome 86.0.4240.183","1536x864","1536x722","DiagramFeedback","DiagramFeedback","DiagramFeedback",12,"1",2,"JoL1","Two","response_button_text",48309.24,NA,NA,"4",1,"GeldDiagramFeedback",NA
"69",1604606589864,1,"05/11/2020 21:03:09","BLIND",2495352,NA,"complete",NA,"5fa4563a81c7720aa07d2f3b","computer","Desktop or Laptop","Windows 10","Chrome 86.0.4240.183","1536x864","1536x722","DiagramFeedback","DiagramFeedback","DiagramFeedback",12,"1",3,"Diagram","DiagBox2","response_text_area",48309.24,NA,NA,"8D",NA,"GeldDiagramFeedback",NA
"7",1604605816539,1,"05/11/2020 20:50:16","BLIND",2495352,NA,"complete",NA,"5fa4563a81c7720aa07d2f3b","computer","Desktop or Laptop","Windows 10","Chrome 86.0.4240.183","1536x864","1536x722","DiagramFeedback","DiagramFeedback","DiagramFeedback",1,"1",3,"Screen 3","DiagBox4","response_text_area",48309.24,NA,NA,"KHf8US",NA,"SportenDiagramFeedback",NA
"70",1604606589866,1,"05/11/2020 21:03:09","BLIND",2495352,NA,"complete",NA,"5fa4563a81c7720aa07d2f3b","computer","Desktop or Laptop","Windows 10","Chrome 86.0.4240.183","1536x864","1536x722","DiagramFeedback","DiagramFeedback","DiagramFeedback",12,"1",3,"Diagram","DiagBox3","response_text_area",48309.24,NA,NA,"Yo3",NA,"GeldDiagramFeedback",NA
"71",1604606589866,1,"05/11/2020 21:03:09","BLIND",2495352,NA,"complete",NA,"5fa4563a81c7720aa07d2f3b","computer","Desktop or Laptop","Windows 10","Chrome 86.0.4240.183","1536x864","1536x722","DiagramFeedback","DiagramFeedback","DiagramFeedback",12,"1",3,"Diagram","DiagBox4","response_text_area",48309.24,NA,NA,"?",NA,"GeldDiagramFeedback",NA
"72",1604606589866,1,"05/11/2020 21:03:09","BLIND",2495352,NA,"complete",NA,"5fa4563a81c7720aa07d2f3b","computer","Desktop or Laptop","Windows 10","Chrome 86.0.4240.183","1536x864","1536x722","DiagramFeedback","DiagramFeedback","DiagramFeedback",12,"1",3,"Diagram","DiagBox1","response_text_area",48309.24,NA,NA,"tRIaj",NA,"GeldDiagramFeedback",NA
"73",1604606589866,1,"05/11/2020 21:03:09","BLIND",2495352,NA,"complete",NA,"5fa4563a81c7720aa07d2f3b","computer","Desktop or Laptop","Windows 10","Chrome 86.0.4240.183","1536x864","1536x722","DiagramFeedback","DiagramFeedback","DiagramFeedback",12,"1",3,"Diagram","Zone1","continue_button",48309.24,NA,NA,"",NA,"GeldDiagramFeedback",NA
"74",1604606603640,1,"05/11/2020 21:03:23","BLIND",2495352,NA,"complete",NA,"5fa4563a81c7720aa07d2f3b","computer","Desktop or Laptop","Windows 10","Chrome 86.0.4240.183","1536x864","1536x722","DiagramFeedback","DiagramFeedback","DiagramFeedback",12,"1",4,"Feedback","Zone1","continue_button",48309.24,NA,NA,"",NA,"GeldDiagramFeedback",NA
"75",1604606605024,1,"05/11/2020 21:03:25","BLIND",2495352,NA,"complete",NA,"5fa4563a81c7720aa07d2f3b","computer","Desktop or Laptop","Windows 10","Chrome 86.0.4240.183","1536x864","1536x722","DiagramFeedback","DiagramFeedback","DiagramFeedback",12,"1",5,"JoL2","Three","response_button_text",48309.24,NA,NA,"4",1,"GeldDiagramFeedback",NA
"76",1604606606040,1,"05/11/2020 21:03:26","BLIND",2495352,NA,"complete",NA,"5fa4563a81c7720aa07d2f3b","computer","Desktop or Laptop","Windows 10","Chrome 86.0.4240.183","1536x864","1536x722","DiagramFeedback","DiagramFeedback","DiagramFeedback",12,"1",6,"InstructieToets","advancementZone","continue_button",48309.24,NA,NA,"",NA,"GeldDiagramFeedback",NA
"77",1604606658472,1,"05/11/2020 21:04:18","BLIND",2495352,NA,"complete",NA,"5fa4563a81c7720aa07d2f3b","computer","Desktop or Laptop","Windows 10","Chrome 86.0.4240.183","1536x864","1536x722","DiagramFeedback","DiagramFeedback","DiagramFeedback",12,"1",7,"Test","buttonA","response_text_area",48309.24,NA,NA,"fC4SxB11",NA,"GeldDiagramFeedback",NA
"78",1604606658473,1,"05/11/2020 21:04:18","BLIND",2495352,NA,"complete",NA,"5fa4563a81c7720aa07d2f3b","computer","Desktop or Laptop","Windows 10","Chrome 86.0.4240.183","1536x864","1536x722","DiagramFeedback","DiagramFeedback","DiagramFeedback",12,"1",7,"Test","buttonB","continue_button",48309.24,NA,NA,"",NA,"GeldDiagramFeedback",NA
"79",1604606659824,1,"05/11/2020 21:04:19","BLIND",2495352,NA,"complete",NA,"5fa4563a81c7720aa07d2f3b","computer","Desktop or Laptop","Windows 10","Chrome 86.0.4240.183","1536x864","1536x722","DiagramFeedback","DiagramFeedback","DiagramFeedback",11,"5",1,"ReadyForNext","advancementZone","continue_button",48309.24,NA,NA,"",NA,"ReadyForNextTextScreen",NA
"8",1604605816539,1,"05/11/2020 20:50:16","BLIND",2495352,NA,"complete",NA,"5fa4563a81c7720aa07d2f3b","computer","Desktop or Laptop","Windows 10","Chrome 86.0.4240.183","1536x864","1536x722","DiagramFeedback","DiagramFeedback","DiagramFeedback",1,"1",3,"Screen 3","Zone1","continue_button",48309.24,NA,NA,"",NA,"SportenDiagramFeedback",NA
"80",1604606676808,1,"05/11/2020 21:04:36","BLIND",2495352,NA,"complete",NA,"5fa4563a81c7720aa07d2f3b","computer","Desktop or Laptop","Windows 10","Chrome 86.0.4240.183","1536x864","1536x722","DiagramFeedback","DiagramFeedback","DiagramFeedback",10,"1",1,"Text","advancementZone","continue_button",48309.24,NA,NA,"",NA,"MuziekDiagramFeedback",NA
"81",1604606678880,1,"05/11/2020 21:04:38","BLIND",2495352,NA,"complete",NA,"5fa4563a81c7720aa07d2f3b","computer","Desktop or Laptop","Windows 10","Chrome 86.0.4240.183","1536x864","1536x722","DiagramFeedback","DiagramFeedback","DiagramFeedback",10,"1",2,"JoL1","Three","response_button_text",48309.24,NA,NA,"4",1,"MuziekDiagramFeedback",NA
"82",1604606728152,1,"05/11/2020 21:05:28","BLIND",2495352,NA,"complete",NA,"5fa4563a81c7720aa07d2f3b","computer","Desktop or Laptop","Windows 10","Chrome 86.0.4240.183","1536x864","1536x722","DiagramFeedback","DiagramFeedback","DiagramFeedback",10,"1",3,"Diagram","DiagBox1","response_text_area",48309.24,NA,NA,"ub",NA,"MuziekDiagramFeedback",NA
"83",1604606728155,1,"05/11/2020 21:05:28","BLIND",2495352,NA,"complete",NA,"5fa4563a81c7720aa07d2f3b","computer","Desktop or Laptop","Windows 10","Chrome 86.0.4240.183","1536x864","1536x722","DiagramFeedback","DiagramFeedback","DiagramFeedback",10,"1",3,"Diagram","DiagBox2","response_text_area",48309.24,NA,NA,"HQPghi8anr",NA,"MuziekDiagramFeedback",NA
"84",1604606728155,1,"05/11/2020 21:05:28","BLIND",2495352,NA,"complete",NA,"5fa4563a81c7720aa07d2f3b","computer","Desktop or Laptop","Windows 10","Chrome 86.0.4240.183","1536x864","1536x722","DiagramFeedback","DiagramFeedback","DiagramFeedback",10,"1",3,"Diagram","DiagBox3","response_text_area",48309.24,NA,NA,"LBgK5H",NA,"MuziekDiagramFeedback",NA
"85",1604606728155,1,"05/11/2020 21:05:28","BLIND",2495352,NA,"complete",NA,"5fa4563a81c7720aa07d2f3b","computer","Desktop or Laptop","Windows 10","Chrome 86.0.4240.183","1536x864","1536x722","DiagramFeedback","DiagramFeedback","DiagramFeedback",10,"1",3,"Diagram","DiagBox4","response_text_area",48309.24,NA,NA,"gt2GbKzzT",NA,"MuziekDiagramFeedback",NA
"86",1604606728155,1,"05/11/2020 21:05:28","BLIND",2495352,NA,"complete",NA,"5fa4563a81c7720aa07d2f3b","computer","Desktop or Laptop","Windows 10","Chrome 86.0.4240.183","1536x864","1536x722","DiagramFeedback","DiagramFeedback","DiagramFeedback",10,"1",3,"Diagram","Zone1","continue_button",48309.24,NA,NA,"",NA,"MuziekDiagramFeedback",NA
"87",1604606737848,1,"05/11/2020 21:05:37","BLIND",2495352,NA,"complete",NA,"5fa4563a81c7720aa07d2f3b","computer","Desktop or Laptop","Windows 10","Chrome 86.0.4240.183","1536x864","1536x722","DiagramFeedback","DiagramFeedback","DiagramFeedback",10,"1",4,"Feedback","Zone1","continue_button",48309.24,NA,NA,"",NA,"MuziekDiagramFeedback",NA
"88",1604606738800,1,"05/11/2020 21:05:38","BLIND",2495352,NA,"complete",NA,"5fa4563a81c7720aa07d2f3b","computer","Desktop or Laptop","Windows 10","Chrome 86.0.4240.183","1536x864","1536x722","DiagramFeedback","DiagramFeedback","DiagramFeedback",10,"1",5,"JoL2","Three","response_button_text",48309.24,NA,NA,"4",1,"MuziekDiagramFeedback",NA
"89",1604606739847,1,"05/11/2020 21:05:39","BLIND",2495352,NA,"complete",NA,"5fa4563a81c7720aa07d2f3b","computer","Desktop or Laptop","Windows 10","Chrome 86.0.4240.183","1536x864","1536x722","DiagramFeedback","DiagramFeedback","DiagramFeedback",10,"1",6,"InstructieToets","advancementZone","continue_button",48309.24,NA,NA,"",NA,"MuziekDiagramFeedback",NA
"9",1604605835239,1,"05/11/2020 20:50:35","BLIND",2495352,NA,"complete",NA,"5fa4563a81c7720aa07d2f3b","computer","Desktop or Laptop","Windows 10","Chrome 86.0.4240.183","1536x864","1536x722","DiagramFeedback","DiagramFeedback","DiagramFeedback",1,"1",4,"Feedback","Zone1","continue_button",48309.24,NA,NA,"",NA,"SportenDiagramFeedback",NA
"90",1604606803688,1,"05/11/2020 21:06:43","BLIND",2495352,NA,"complete",NA,"5fa4563a81c7720aa07d2f3b","computer","Desktop or Laptop","Windows 10","Chrome 86.0.4240.183","1536x864","1536x722","DiagramFeedback","DiagramFeedback","DiagramFeedback",10,"1",7,"Test","buttonA","response_text_area",48309.24,NA,NA,"h80mKl",NA,"MuziekDiagramFeedback",NA
"91",1604606803690,1,"05/11/2020 21:06:43","BLIND",2495352,NA,"complete",NA,"5fa4563a81c7720aa07d2f3b","computer","Desktop or Laptop","Windows 10","Chrome 86.0.4240.183","1536x864","1536x722","DiagramFeedback","DiagramFeedback","DiagramFeedback",10,"1",7,"Test","buttonB","continue_button",48309.24,NA,NA,"",NA,"MuziekDiagramFeedback",NA
"92",1604606803694,1,"05/11/2020 21:06:43","BLIND",2495352,NA,"complete",NA,"5fa4563a81c7720aa07d2f3b","computer","Desktop or Laptop","Windows 10","Chrome 86.0.4240.183","1536x864","1536x722","DiagramFeedback","DiagramFeedback","",NA,"END TASK",NA,"","","",1070249,NA,NA,"",NA,"",NA
"1",1604742778139,1,"07/11/2020 10:52:58","BLIND",2977600,NA,"complete",NA,"5fa66d66eb0dac26f0ba5f1e","computer","Desktop or Laptop","Windows 10","Chrome 86.0.4240.183","1920x1080","1920x969","DiagramFeedback","DiagramFeedback","",NA,"BEGIN TASK",NA,"","","",NA,NA,NA,"",NA,"",NA
"10",1604742860663,1,"07/11/2020 10:54:20","BLIND",2977600,NA,"complete",NA,"5fa66d66eb0dac26f0ba5f1e","computer","Desktop or Laptop","Windows 10","Chrome 86.0.4240.183","1920x1080","1920x969","DiagramFeedback","DiagramFeedback","DiagramFeedback",1,"1",5,"JoL2","Four","response_button_text",48309.24,NA,NA,"4",1,"SportenDiagramFeedback",NA
"11",1604742862526,1,"07/11/2020 10:54:22","BLIND",2977600,NA,"complete",NA,"5fa66d66eb0dac26f0ba5f1e","computer","Desktop or Laptop","Windows 10","Chrome 86.0.4240.183","1920x1080","1920x969","DiagramFeedback","DiagramFeedback","DiagramFeedback",1,"1",6,"InstructieToets","advancementZone","continue_button",48309.24,NA,NA,"",NA,"SportenDiagramFeedback",NA
"12",1604742916647,1,"07/11/2020 10:55:16","BLIND",2977600,NA,"complete",NA,"5fa66d66eb0dac26f0ba5f1e","computer","Desktop or Laptop","Windows 10","Chrome 86.0.4240.183","1920x1080","1920x969","DiagramFeedback","DiagramFeedback","DiagramFeedback",1,"1",7,"Test","buttonA","response_text_area",48309.24,NA,NA,"uKB6",NA,"SportenDiagramFeedback",NA
"13",1604742916648,1,"07/11/2020 10:55:16","BLIND",2977600,NA,"complete",NA,"5fa66d66eb0dac26f0ba5f1e","computer","Desktop or Laptop","Windows 10","Chrome 86.0.4240.183","1920x1080","1920x969","DiagramFeedback","DiagramFeedback","DiagramFeedback",1,"1",7,"Test","buttonB","continue_button",48309.24,NA,NA,"",NA,"SportenDiagramFeedback",NA
"14",1604742919302,1,"07/11/2020 10:55:19","BLIND",2977600,NA,"complete",NA,"5fa66d66eb0dac26f0ba5f1e","computer","Desktop or Laptop","Windows 10","Chrome 86.0.4240.183","1920x1080","1920x969","DiagramFeedback","DiagramFeedback","DiagramFeedback",1,"1",8,"Klaar4Experiment","advancementZone","continue_button",48309.24,NA,NA,"",NA,"SportenDiagramFeedback",NA
"15",1604742949134,1,"07/11/2020 10:55:49","BLIND",2977600,NA,"complete",NA,"5fa66d66eb0dac26f0ba5f1e","computer","Desktop or Laptop","Windows 10","Chrome 86.0.4240.183","1920x1080","1920x969","DiagramFeedback","DiagramFeedback","DiagramFeedback",2,"1",1,"Text","advancementZone","continue_button",48309.24,NA,NA,"",NA,"MetroDiagramFeedback",NA
"16",1604742951510,1,"07/11/2020 10:55:51","BLIND",2977600,NA,"complete",NA,"5fa66d66eb0dac26f0ba5f1e","computer","Desktop or Laptop","Windows 10","Chrome 86.0.4240.183","1920x1080","1920x969","DiagramFeedback","DiagramFeedback","DiagramFeedback",2,"1",2,"JoL1","Three","response_button_text",48309.24,NA,NA,"4",1,"MetroDiagramFeedback",NA
"17",1604743025254,1,"07/11/2020 10:57:05","BLIND",2977600,NA,"complete",NA,"5fa66d66eb0dac26f0ba5f1e","computer","Desktop or Laptop","Windows 10","Chrome 86.0.4240.183","1920x1080","1920x969","DiagramFeedback","DiagramFeedback","DiagramFeedback",2,"1",3,"Diagram","DiagBox1","response_text_area",48309.24,NA,NA,"szRat7n",NA,"MetroDiagramFeedback",NA
"18",1604743025256,1,"07/11/2020 10:57:05","BLIND",2977600,NA,"complete",NA,"5fa66d66eb0dac26f0ba5f1e","computer","Desktop or Laptop","Windows 10","Chrome 86.0.4240.183","1920x1080","1920x969","DiagramFeedback","DiagramFeedback","DiagramFeedback",2,"1",3,"Diagram","DiagBox3","response_text_area",48309.24,NA,NA,"Kf52",NA,"MetroDiagramFeedback",NA
"19",1604743025256,1,"07/11/2020 10:57:05","BLIND",2977600,NA,"complete",NA,"5fa66d66eb0dac26f0ba5f1e","computer","Desktop or Laptop","Windows 10","Chrome 86.0.4240.183","1920x1080","1920x969","DiagramFeedback","DiagramFeedback","DiagramFeedback",2,"1",3,"Diagram","DiagBox4","response_text_area",48309.24,NA,NA,"qW0U",NA,"MetroDiagramFeedback",NA
"2",1604742808584,1,"07/11/2020 10:53:28","BLIND",2977600,NA,"complete",NA,"5fa66d66eb0dac26f0ba5f1e","computer","Desktop or Laptop","Windows 10","Chrome 86.0.4240.183","1920x1080","1920x969","DiagramFeedback","DiagramFeedback","DiagramFeedback",1,"1",1,"Text","advancementZone","continue_button",48309.24,NA,NA,"",NA,"SportenDiagramFeedback",NA
"20",1604743025256,1,"07/11/2020 10:57:05","BLIND",2977600,NA,"complete",NA,"5fa66d66eb0dac26f0ba5f1e","computer","Desktop or Laptop","Windows 10","Chrome 86.0.4240.183","1920x1080","1920x969","DiagramFeedback","DiagramFeedback","DiagramFeedback",2,"1",3,"Diagram","DiagBox2","response_text_area",48309.24,NA,NA,"hChD4d3",NA,"MetroDiagramFeedback",NA
"21",1604743025256,1,"07/11/2020 10:57:05","BLIND",2977600,NA,"complete",NA,"5fa66d66eb0dac26f0ba5f1e","computer","Desktop or Laptop","Windows 10","Chrome 86.0.4240.183","1920x1080","1920x969","DiagramFeedback","DiagramFeedback","DiagramFeedback",2,"1",3,"Diagram","Zone1","continue_button",48309.24,NA,NA,"",NA,"MetroDiagramFeedback",NA
"22",1604743040150,1,"07/11/2020 10:57:20","BLIND",2977600,NA,"complete",NA,"5fa66d66eb0dac26f0ba5f1e","computer","Desktop or Laptop","Windows 10","Chrome 86.0.4240.183","1920x1080","1920x969","DiagramFeedback","DiagramFeedback","DiagramFeedback",2,"1",4,"Feedback","Zone1","continue_button",48309.24,NA,NA,"",NA,"MetroDiagramFeedback",NA
"23",1604743042670,1,"07/11/2020 10:57:22","BLIND",2977600,NA,"complete",NA,"5fa66d66eb0dac26f0ba5f1e","computer","Desktop or Laptop","Windows 10","Chrome 86.0.4240.183","1920x1080","1920x969","DiagramFeedback","DiagramFeedback","DiagramFeedback",2,"1",5,"JoL2","Four","response_button_text",48309.24,NA,NA,"4",1,"MetroDiagramFeedback",NA
"24",1604743044190,1,"07/11/2020 10:57:24","BLIND",2977600,NA,"complete",NA,"5fa66d66eb0dac26f0ba5f1e","computer","Desktop or Laptop","Windows 10","Chrome 86.0.4240.183","1920x1080","1920x969","DiagramFeedback","DiagramFeedback","DiagramFeedback",2,"1",6,"InstructieToets","advancementZone","continue_button",48309.24,NA,NA,"",NA,"MetroDiagramFeedback",NA
"25",1604743093983,1,"07/11/2020 10:58:13","BLIND",2977600,NA,"complete",NA,"5fa66d66eb0dac26f0ba5f1e","computer","Desktop or Laptop","Windows 10","Chrome 86.0.4240.183","1920x1080","1920x969","DiagramFeedback","DiagramFeedback","DiagramFeedback",2,"1",7,"Test","buttonA","response_text_area",48309.24,NA,NA,"zI2",NA,"MetroDiagramFeedback",NA
"26",1604743093984,1,"07/11/2020 10:58:13","BLIND",2977600,NA,"complete",NA,"5fa66d66eb0dac26f0ba5f1e","computer","Desktop or Laptop","Windows 10","Chrome 86.0.4240.183","1920x1080","1920x969","DiagramFeedback","DiagramFeedback","DiagramFeedback",2,"1",7,"Test","buttonB","continue_button",48309.24,NA,NA,"",NA,"MetroDiagramFeedback",NA
"27",1604743096750,1,"07/11/2020 10:58:16","BLIND",2977600,NA,"complete",NA,"5fa66d66eb0dac26f0ba5f1e","computer","Desktop or Laptop","Windows 10","Chrome 86.0.4240.183","1920x1080","1920x969","DiagramFeedback","DiagramFeedback","DiagramFeedback",3,"1",1,"ReadyForNext","advancementZone","continue_button",48309.24,NA,NA,"",NA,"ReadyForNextTextScreen",NA
"28",1604743140366,1,"07/11/2020 10:59:00","BLIND",2977600,NA,"complete",NA,"5fa66d66eb0dac26f0ba5f1e","computer","Desktop or Laptop","Windows 10","Chrome 86.0.4240.183","1920x1080","1920x969","DiagramFeedback","DiagramFeedback","DiagramFeedback",4,"1",1,"Text","advancementZone","continue_button",48309.24,NA,NA,"",NA,"BetonDiagramFeedback",NA
"29",1604743143158,1,"07/11/2020 10:59:03","BLIND",2977600,NA,"complete",NA,"5fa66d66eb0dac26f0ba5f1e","computer","Desktop or Laptop","Windows 10","Chrome 86.0.4240.183","1920x1080","1920x969","DiagramFeedback","DiagramFeedback","DiagramFeedback",4,"1",2,"JoL1","Three","response_button_text",48309.24,NA,NA,"4",1,"BetonDiagramFeedback",NA
"3",1604742812087,1,"07/11/2020 10:53:32","BLIND",2977600,NA,"complete",NA,"5fa66d66eb0dac26f0ba5f1e","computer","Desktop or Laptop","Windows 10","Chrome 86.0.4240.183","1920x1080","1920x969","DiagramFeedback","DiagramFeedback","DiagramFeedback",1,"1",2,"JoL1","Three","response_button_text",48309.24,NA,NA,"4",1,"SportenDiagramFeedback",NA
"30",1604743197295,1,"07/11/2020 10:59:57","BLIND",2977600,NA,"complete",NA,"5fa66d66eb0dac26f0ba5f1e","computer","Desktop or Laptop","Windows 10","Chrome 86.0.4240.183","1920x1080","1920x969","DiagramFeedback","DiagramFeedback","DiagramFeedback",4,"1",3,"Diagram","DiagBox2","response_text_area",48309.24,NA,NA,"InG2ncI3E",NA,"BetonDiagramFeedback",NA
"31",1604743197297,1,"07/11/2020 10:59:57","BLIND",2977600,NA,"complete",NA,"5fa66d66eb0dac26f0ba5f1e","computer","Desktop or Laptop","Windows 10","Chrome 86.0.4240.183","1920x1080","1920x969","DiagramFeedback","DiagramFeedback","DiagramFeedback",4,"1",3,"Diagram","DiagBox3","response_text_area",48309.24,NA,NA,"hX",NA,"BetonDiagramFeedback",NA
"32",1604743197297,1,"07/11/2020 10:59:57","BLIND",2977600,NA,"complete",NA,"5fa66d66eb0dac26f0ba5f1e","computer","Desktop or Laptop","Windows 10","Chrome 86.0.4240.183","1920x1080","1920x969","DiagramFeedback","DiagramFeedback","DiagramFeedback",4,"1",3,"Diagram","DiagBox4","response_text_area",48309.24,NA,NA,"?",NA,"BetonDiagramFeedback",NA
"33",1604743197297,1,"07/11/2020 10:59:57","BLIND",2977600,NA,"complete",NA,"5fa66d66eb0dac26f0ba5f1e","computer","Desktop or Laptop","Windows 10","Chrome 86.0.4240.183","1920x1080","1920x969","DiagramFeedback","DiagramFeedback","DiagramFeedback",4,"1",3,"Diagram","DiagBox1","response_text_area",48309.24,NA,NA,"3t9ntPHt",NA,"BetonDiagramFeedback",NA
"34",1604743197297,1,"07/11/2020 10:59:57","BLIND",2977600,NA,"complete",NA,"5fa66d66eb0dac26f0ba5f1e","computer","Desktop or Laptop","Windows 10","Chrome 86.0.4240.183","1920x1080","1920x969","DiagramFeedback","DiagramFeedback","DiagramFeedback",4,"1",3,"Diagram","Zone1","continue_button",48309.24,NA,NA,"",NA,"BetonDiagramFeedback",NA
"35",1604743208534,1,"07/11/2020 11:00:08","BLIND",2977600,NA,"complete",NA,"5fa66d66eb0dac26f0ba5f1e","computer","Desktop or Laptop","Windows 10","Chrome 86.0.4240.183","1920x1080","1920x969","DiagramFeedback","DiagramFeedback","DiagramFeedback",4,"1",4,"Feedback","Zone1","continue_button",48309.24,NA,NA,"",NA,"BetonDiagramFeedback",NA
"36",1604743211470,1,"07/11/2020 11:00:11","BLIND",2977600,NA,"complete",NA,"5fa66d66eb0dac26f0ba5f1e","computer","Desktop or Laptop","Windows 10","Chrome 86.0.4240.183","1920x1080","1920x969","DiagramFeedback","DiagramFeedback","DiagramFeedback",4,"1",5,"JoL2","Four","response_button_text",48309.24,NA,NA,"4",1,"BetonDiagramFeedback",NA
"37",1604743213190,1,"07/11/2020 11:00:13","BLIND",2977600,NA,"complete",NA,"5fa66d66eb0dac26f0ba5f1e","computer","Desktop or Laptop","Windows 10","Chrome 86.0.4240.183","1920x1080","1920x969","DiagramFeedback","DiagramFeedback","DiagramFeedback",4,"1",6,"InstructieToets","advancementZone","continue_button",48309.24,NA,NA,"",NA,"BetonDiagramFeedback",NA
"38",1604743250758,1,"07/11/2020 11:00:50","BLIND",2977600,NA,"complete",NA,"5fa66d66eb0dac26f0ba5f1e","computer","Desktop or Laptop","Windows 10","Chrome 86.0.4240.183","1920x1080","1920x969","DiagramFeedback","DiagramFeedback","DiagramFeedback",4,"1",7,"Test","buttonA","response_text_area",48309.24,NA,NA,"l5rIc3ODP",NA,"BetonDiagramFeedback",NA
"39",1604743250759,1,"07/11/2020 11:00:50","BLIND",2977600,NA,"complete",NA,"5fa66d66eb0dac26f0ba5f1e","computer","Desktop or Laptop","Windows 10","Chrome 86.0.4240.183","1920x1080","1920x969","DiagramFeedback","DiagramFeedback","DiagramFeedback",4,"1",7,"Test","buttonB","continue_button",48309.24,NA,NA,"",NA,"BetonDiagramFeedback",NA
"4",1604742851894,1,"07/11/2020 10:54:11","BLIND",2977600,NA,"complete",NA,"5fa66d66eb0dac26f0ba5f1e","computer","Desktop or Laptop","Windows 10","Chrome 86.0.4240.183","1920x1080","1920x969","DiagramFeedback","DiagramFeedback","DiagramFeedback",1,"1",3,"Screen 3","DiagBox1","response_text_area",48309.24,NA,NA,"Vf1",NA,"SportenDiagramFeedback",NA
"40",1604743252622,1,"07/11/2020 11:00:52","BLIND",2977600,NA,"complete",NA,"5fa66d66eb0dac26f0ba5f1e","computer","Desktop or Laptop","Windows 10","Chrome 86.0.4240.183","1920x1080","1920x969","DiagramFeedback","DiagramFeedback","DiagramFeedback",5,"2",1,"ReadyForNext","advancementZone","continue_button",48309.24,NA,NA,"",NA,"ReadyForNextTextScreen",NA
"41",1604743301374,1,"07/11/2020 11:01:41","BLIND",2977600,NA,"complete",NA,"5fa66d66eb0dac26f0ba5f1e","computer","Desktop or Laptop","Windows 10","Chrome 86.0.4240.183","1920x1080","1920x969","DiagramFeedback","DiagramFeedback","DiagramFeedback",12,"1",1,"Text","advancementZone","continue_button",48309.24,NA,NA,"",NA,"GeldDiagramFeedback",NA
"42",1604743304702,1,"07/11/2020 11:01:44","BLIND",2977600,NA,"complete",NA,"5fa66d66eb0dac26f0ba5f1e","computer","Desktop or Laptop","Windows 10","Chrome 86.0.4240.183","1920x1080","1920x969","DiagramFeedback","DiagramFeedback","DiagramFeedback",12,"1",2,"JoL1","Three","response_button_text",48309.24,NA,NA,"4",1,"GeldDiagramFeedback",NA
"43",1604743385263,1,"07/11/2020 11:03:05","BLIND",2977600,NA,"complete",NA,"5fa66d66eb0dac26f0ba5f1e","computer","Desktop or Laptop","Windows 10","Chrome 86.0.4240.183","1920x1080","1920x969","DiagramFeedback","DiagramFeedback","DiagramFeedback",12,"1",3,"Diagram","DiagBox2","response_text_area",48309.24,NA,NA,"04Tgm",NA,"GeldDiagramFeedback",NA
"44",1604743385265,1,"07/11/2020 11:03:05","BLIND",2977600,NA,"complete",NA,"5fa66d66eb0dac26f0ba5f1e","computer","Desktop or Laptop","Windows 10","Chrome 86.0.4240.183","1920x1080","1920x969","DiagramFeedback","DiagramFeedback","DiagramFeedback",12,"1",3,"Diagram","DiagBox3","response_text_area",48309.24,NA,NA,"3syZDTeK4n",NA,"GeldDiagramFeedback",NA
"45",1604743385265,1,"07/11/2020 11:03:05","BLIND",2977600,NA,"complete",NA,"5fa66d66eb0dac26f0ba5f1e","computer","Desktop or Laptop","Windows 10","Chrome 86.0.4240.183","1920x1080","1920x969","DiagramFeedback","DiagramFeedback","DiagramFeedback",12,"1",3,"Diagram","DiagBox4","response_text_area",48309.24,NA,NA,"A1QJlcq",NA,"GeldDiagramFeedback",NA
"46",1604743385265,1,"07/11/2020 11:03:05","BLIND",2977600,NA,"complete",NA,"5fa66d66eb0dac26f0ba5f1e","computer","Desktop or Laptop","Windows 10","Chrome 86.0.4240.183","1920x1080","1920x969","DiagramFeedback","DiagramFeedback","DiagramFeedback",12,"1",3,"Diagram","DiagBox1","response_text_area",48309.24,NA,NA,"Rggk",NA,"GeldDiagramFeedback",NA
"47",1604743385265,1,"07/11/2020 11:03:05","BLIND",2977600,NA,"complete",NA,"5fa66d66eb0dac26f0ba5f1e","computer","Desktop or Laptop","Windows 10","Chrome 86.0.4240.183","1920x1080","1920x969","DiagramFeedback","DiagramFeedback","DiagramFeedback",12,"1",3,"Diagram","Zone1","continue_button",48309.24,NA,NA,"",NA,"GeldDiagramFeedback",NA
"48",1604743411910,1,"07/11/2020 11:03:31","BLIND",2977600,NA,"complete",NA,"5fa66d66eb0dac26f0ba5f1e","computer","Desktop or Laptop","Windows 10","Chrome 86.0.4240.183","1920x1080","1920x969","DiagramFeedback","DiagramFeedback","DiagramFeedback",12,"1",4,"Feedback","Zone1","continue_button",48309.24,NA,NA,"",NA,"GeldDiagramFeedback",NA
"49",1604743413278,1,"07/11/2020 11:03:33","BLIND",2977600,NA,"complete",NA,"5fa66d66eb0dac26f0ba5f1e","computer","Desktop or Laptop","Windows 10","Chrome 86.0.4240.183","1920x1080","1920x969","DiagramFeedback","DiagramFeedback","DiagramFeedback",12,"1",5,"JoL2","Four","response_button_text",48309.24,NA,NA,"4",1,"GeldDiagramFeedback",NA
"5",1604742851895,1,"07/11/2020 10:54:11","BLIND",2977600,NA,"complete",NA,"5fa66d66eb0dac26f0ba5f1e","computer","Desktop or Laptop","Windows 10","Chrome 86.0.4240.183","1920x1080","1920x969","DiagramFeedback","DiagramFeedback","DiagramFeedback",1,"1",3,"Screen 3","DiagBox2","response_text_area",48309.24,NA,NA,"2Y8m",NA,"SportenDiagramFeedback",NA
"50",1604743414942,1,"07/11/2020 11:03:34","BLIND",2977600,NA,"complete",NA,"5fa66d66eb0dac26f0ba5f1e","computer","Desktop or Laptop","Windows 10","Chrome 86.0.4240.183","1920x1080","1920x969","DiagramFeedback","DiagramFeedback","DiagramFeedback",12,"1",6,"InstructieToets","advancementZone","continue_button",48309.24,NA,NA,"",NA,"GeldDiagramFeedback",NA
"51",1604743457791,1,"07/11/2020 11:04:17","BLIND",2977600,NA,"complete",NA,"5fa66d66eb0dac26f0ba5f1e","computer","Desktop or Laptop","Windows 10","Chrome 86.0.4240.183","1920x1080","1920x969","DiagramFeedback","DiagramFeedback","DiagramFeedback",12,"1",7,"Test","buttonA","response_text_area",48309.24,NA,NA,"UB",NA,"GeldDiagramFeedback",NA
"52",1604743457792,1,"07/11/2020 11:04:17","BLIND",2977600,NA,"complete",NA,"5fa66d66eb0dac26f0ba5f1e","computer","Desktop or Laptop","Windows 10","Chrome 86.0.4240.183","1920x1080","1920x969","DiagramFeedback","DiagramFeedback","DiagramFeedback",12,"1",7,"Test","buttonB","continue_button",48309.24,NA,NA,"",NA,"GeldDiagramFeedback",NA
"53",1604743459767,1,"07/11/2020 11:04:19","BLIND",2977600,NA,"complete",NA,"5fa66d66eb0dac26f0ba5f1e","computer","Desktop or Laptop","Windows 10","Chrome 86.0.4240.183","1920x1080","1920x969","DiagramFeedback","DiagramFeedback","DiagramFeedback",7,"3",1,"ReadyForNext","advancementZone","continue_button",48309.24,NA,NA,"",NA,"ReadyForNextTextScreen",NA
"54",1604743519382,1,"07/11/2020 11:05:19","BLIND",2977600,NA,"complete",NA,"5fa66d66eb0dac26f0ba5f1e","computer","Desktop or Laptop","Windows 10","Chrome 86.0.4240.183","1920x1080","1920x969","DiagramFeedback","DiagramFeedback","DiagramFeedback",8,"1",1,"Text","advancementZone","continue_button",48309.24,NA,NA,"",NA,"BotoxDiagramFeedback",NA
"55",1604743520350,1,"07/11/2020 11:05:20","BLIND",2977600,NA,"complete",NA,"5fa66d66eb0dac26f0ba5f1e","computer","Desktop or Laptop","Windows 10","Chrome 86.0.4240.183","1920x1080","1920x969","DiagramFeedback","DiagramFeedback","DiagramFeedback",8,"1",2,"JoL1","Two","response_button_text",48309.24,NA,NA,"4",1,"BotoxDiagramFeedback",NA
"56",1604743589558,1,"07/11/2020 11:06:29","BLIND",2977600,NA,"complete",NA,"5fa66d66eb0dac26f0ba5f1e","computer","Desktop or Laptop","Windows 10","Chrome 86.0.4240.183","1920x1080","1920x969","DiagramFeedback","DiagramFeedback","DiagramFeedback",8,"1",3,"Diagram","DiagBox3","response_text_area",48309.24,NA,NA,"RI7H7CJR",NA,"BotoxDiagramFeedback",NA
"57",1604743589559,1,"07/11/2020 11:06:29","BLIND",2977600,NA,"complete",NA,"5fa66d66eb0dac26f0ba5f1e","computer","Desktop or Laptop","Windows 10","Chrome 86.0.4240.183","1920x1080","1920x969","DiagramFeedback","DiagramFeedback","DiagramFeedback",8,"1",3,"Diagram","DiagBox4","response_text_area",48309.24,NA,NA,"qsmR7B",NA,"BotoxDiagramFeedback",NA
"58",1604743589559,1,"07/11/2020 11:06:29","BLIND",2977600,NA,"complete",NA,"5fa66d66eb0dac26f0ba5f1e","computer","Desktop or Laptop","Windows 10","Chrome 86.0.4240.183","1920x1080","1920x969","DiagramFeedback","DiagramFeedback","DiagramFeedback",8,"1",3,"Diagram","DiagBox2","response_text_area",48309.24,NA,NA,"9woMiLj",NA,"BotoxDiagramFeedback",NA
"59",1604743589559,1,"07/11/2020 11:06:29","BLIND",2977600,NA,"complete",NA,"5fa66d66eb0dac26f0ba5f1e","computer","Desktop or Laptop","Windows 10","Chrome 86.0.4240.183","1920x1080","1920x969","DiagramFeedback","DiagramFeedback","DiagramFeedback",8,"1",3,"Diagram","DiagBox1","response_text_area",48309.24,NA,NA,"ygiEcPv",NA,"BotoxDiagramFeedback",NA
"6",1604742851895,1,"07/11/2020 10:54:11","BLIND",2977600,NA,"complete",NA,"5fa66d66eb0dac26f0ba5f1e","computer","Desktop or Laptop","Windows 10","Chrome 86.0.4240.183","1920x1080","1920x969","DiagramFeedback","DiagramFeedback","DiagramFeedback",1,"1",3,"Screen 3","DiagBox3","response_text_area",48309.24,NA,NA,"xzxQQuDzU1",NA,"SportenDiagramFeedback",NA
"60",1604743589559,1,"07/11/2020 11:06:29","BLIND",2977600,NA,"complete",NA,"5fa66d66eb0dac26f0ba5f1e","computer","Desktop or Laptop","Windows 10","Chrome 86.0.4240.183","1920x1080","1920x969","DiagramFeedback","DiagramFeedback","DiagramFeedback",8,"1",3,"Diagram","Zone1","continue_button",48309.24,NA,NA,"",NA,"BotoxDiagramFeedback",NA
"61",1604743601510,1,"07/11/2020 11:06:41","BLIND",2977600,NA,"complete",NA,"5fa66d66eb0dac26f0ba5f1e","computer","Desktop or Laptop","Windows 10","Chrome 86.0.4240.183","1920x1080","1920x969","DiagramFeedback","DiagramFeedback","DiagramFeedback",8,"1",4,"Feedback","Zone1","continue_button",48309.24,NA,NA,"",NA,"BotoxDiagramFeedback",NA
"62",1604743604758,1,"07/11/2020 11:06:44","BLIND",2977600,NA,"complete",NA,"5fa66d66eb0dac26f0ba5f1e","computer","Desktop or Laptop","Windows 10","Chrome 86.0.4240.183","1920x1080","1920x969","DiagramFeedback","DiagramFeedback","DiagramFeedback",8,"1",5,"JoL2","Three","response_button_text",48309.24,NA,NA,"4",1,"BotoxDiagramFeedback",NA
"63",1604743606102,1,"07/11/2020 11:06:46","BLIND",2977600,NA,"complete",NA,"5fa66d66eb0dac26f0ba5f1e","computer","Desktop or Laptop","Windows 10","Chrome 86.0.4240.183","1920x1080","1920x969","DiagramFeedback","DiagramFeedback","DiagramFeedback",8,"1",6,"InstructieToets","advancementZone","continue_button",48309.24,NA,NA,"",NA,"BotoxDiagramFeedback",NA
"64",1604743649598,1,"07/11/2020 11:07:29","BLIND",2977600,NA,"complete",NA,"5fa66d66eb0dac26f0ba5f1e","computer","Desktop or Laptop","Windows 10","Chrome 86.0.4240.183","1920x1080","1920x969","DiagramFeedback","DiagramFeedback","DiagramFeedback",8,"1",7,"Test","buttonA","response_text_area",48309.24,NA,NA,"k97gBouChm",NA,"BotoxDiagramFeedback",NA
"65",1604743649599,1,"07/11/2020 11:07:29","BLIND",2977600,NA,"complete",NA,"5fa66d66eb0dac26f0ba5f1e","computer","Desktop or Laptop","Windows 10","Chrome 86.0.4240.183","1920x1080","1920x969","DiagramFeedback","DiagramFeedback","DiagramFeedback",8,"1",7,"Test","buttonB","continue_button",48309.24,NA,NA,"",NA,"BotoxDiagramFeedback",NA
"66",1604743651102,1,"07/11/2020 11:07:31","BLIND",2977600,NA,"complete",NA,"5fa66d66eb0dac26f0ba5f1e","computer","Desktop or Laptop","Windows 10","Chrome 86.0.4240.183","1920x1080","1920x969","DiagramFeedback","DiagramFeedback","DiagramFeedback",9,"4",1,"ReadyForNext","advancementZone","continue_button",48309.24,NA,NA,"",NA,"ReadyForNextTextScreen",NA
"67",1604743682391,1,"07/11/2020 11:08:02","BLIND",2977600,NA,"complete",NA,"5fa66d66eb0dac26f0ba5f1e","computer","Desktop or Laptop","Windows 10","Chrome 86.0.4240.183","1920x1080","1920x969","DiagramFeedback","DiagramFeedback","DiagramFeedback",10,"1",1,"Text","advancementZone","continue_button",48309.24,NA,NA,"",NA,"MuziekDiagramFeedback",NA
"68",1604743684047,1,"07/11/2020 11:08:04","BLIND",2977600,NA,"complete",NA,"5fa66d66eb0dac26f0ba5f1e","computer","Desktop or Laptop","Windows 10","Chrome 86.0.4240.183","1920x1080","1920x969","DiagramFeedback","DiagramFeedback","DiagramFeedback",10,"1",2,"JoL1","Three","response_button_text",48309.24,NA,NA,"4",1,"MuziekDiagramFeedback",NA
"69",1604743724495,1,"07/11/2020 11:08:44","BLIND",2977600,NA,"complete",NA,"5fa66d66eb0dac26f0ba5f1e","computer","Desktop or Laptop","Windows 10","Chrome 86.0.4240.183","1920x1080","1920x969","DiagramFeedback","DiagramFeedback","DiagramFeedback",10,"1",3,"Diagram","DiagBox1","response_text_area",48309.24,NA,NA,"cfTQLKvzjo",NA,"MuziekDiagramFeedback",NA
"7",1604742851895,1,"07/11/2020 10:54:11","BLIND",2977600,NA,"complete",NA,"5fa66d66eb0dac26f0ba5f1e","computer","Desktop or Laptop","Windows 10","Chrome 86.0.4240.183","1920x1080","1920x969","DiagramFeedback","DiagramFeedback","DiagramFeedback",1,"1",3,"Screen 3","DiagBox4","response_text_area",48309.24,NA,NA,"T13Ry",NA,"SportenDiagramFeedback",NA
"70",1604743724496,1,"07/11/2020 11:08:44","BLIND",2977600,NA,"complete",NA,"5fa66d66eb0dac26f0ba5f1e","computer","Desktop or Laptop","Windows 10","Chrome 86.0.4240.183","1920x1080","1920x969","DiagramFeedback","DiagramFeedback","DiagramFeedback",10,"1",3,"Diagram","DiagBox2","response_text_area",48309.24,NA,NA,"mU2O",NA,"MuziekDiagramFeedback",NA
"71",1604743724496,1,"07/11/2020 11:08:44","BLIND",2977600,NA,"complete",NA,"5fa66d66eb0dac26f0ba5f1e","computer","Desktop or Laptop","Windows 10","Chrome 86.0.4240.183","1920x1080","1920x969","DiagramFeedback","DiagramFeedback","DiagramFeedback",10,"1",3,"Diagram","DiagBox3","response_text_area",48309.24,NA,NA,"Fu747c",NA,"MuziekDiagramFeedback",NA
"72",1604743724496,1,"07/11/2020 11:08:44","BLIND",2977600,NA,"complete",NA,"5fa66d66eb0dac26f0ba5f1e","computer","Desktop or Laptop","Windows 10","Chrome 86.0.4240.183","1920x1080","1920x969","DiagramFeedback","DiagramFeedback","DiagramFeedback",10,"1",3,"Diagram","DiagBox4","response_text_area",48309.24,NA,NA,"uK",NA,"MuziekDiagramFeedback",NA
"73",1604743724496,1,"07/11/2020 11:08:44","BLIND",2977600,NA,"complete",NA,"5fa66d66eb0dac26f0ba5f1e","computer","Desktop or Laptop","Windows 10","Chrome 86.0.4240.183","1920x1080","1920x969","DiagramFeedback","DiagramFeedback","DiagramFeedback",10,"1",3,"Diagram","Zone1","continue_button",48309.24,NA,NA,"",NA,"MuziekDiagramFeedback",NA
"74",1604743732702,1,"07/11/2020 11:08:52","BLIND",2977600,NA,"complete",NA,"5fa66d66eb0dac26f0ba5f1e","computer","Desktop or Laptop","Windows 10","Chrome 86.0.4240.183","1920x1080","1920x969","DiagramFeedback","DiagramFeedback","DiagramFeedback",10,"1",4,"Feedback","Zone1","continue_button",48309.24,NA,NA,"",NA,"MuziekDiagramFeedback",NA
"75",1604743733806,1,"07/11/2020 11:08:53","BLIND",2977600,NA,"complete",NA,"5fa66d66eb0dac26f0ba5f1e","computer","Desktop or Laptop","Windows 10","Chrome 86.0.4240.183","1920x1080","1920x969","DiagramFeedback","DiagramFeedback","DiagramFeedback",10,"1",5,"JoL2","Four","response_button_text",48309.24,NA,NA,"4",1,"MuziekDiagramFeedback",NA
"76",1604743734990,1,"07/11/2020 11:08:54","BLIND",2977600,NA,"complete",NA,"5fa66d66eb0dac26f0ba5f1e","computer","Desktop or Laptop","Windows 10","Chrome 86.0.4240.183","1920x1080","1920x969","DiagramFeedback","DiagramFeedback","DiagramFeedback",10,"1",6,"InstructieToets","advancementZone","continue_button",48309.24,NA,NA,"",NA,"MuziekDiagramFeedback",NA
"77",1604743783607,1,"07/11/2020 11:09:43","BLIND",2977600,NA,"complete",NA,"5fa66d66eb0dac26f0ba5f1e","computer","Desktop or Laptop","Windows 10","Chrome 86.0.4240.183","1920x1080","1920x969","DiagramFeedback","DiagramFeedback","DiagramFeedback",10,"1",7,"Test","buttonA","response_text_area",48309.24,NA,NA,"yvGB",NA,"MuziekDiagramFeedback",NA
"78",1604743783608,1,"07/11/2020 11:09:43","BLIND",2977600,NA,"complete",NA,"5fa66d66eb0dac26f0ba5f1e","computer","Desktop or Laptop","Windows 10","Chrome 86.0.4240.183","1920x1080","1920x969","DiagramFeedback","DiagramFeedback","DiagramFeedback",10,"1",7,"Test","buttonB","continue_button",48309.24,NA,NA,"",NA,"MuziekDiagramFeedback",NA
"79",1604743785150,1,"07/11/2020 11:09:45","BLIND",2977600,NA,"complete",NA,"5fa66d66eb0dac26f0ba5f1e","computer","Desktop or Laptop","Windows 10","Chrome 86.0.4240.183","1920x1080","1920x969","DiagramFeedback","DiagramFeedback","DiagramFeedback",11,"5",1,"ReadyForNext","advancementZone","continue_button",48309.24,NA,NA,"",NA,"ReadyForNextTextScreen",NA
"8",1604742851896,1,"07/11/2020 10:54:11","BLIND",2977600,NA,"complete",NA,"5fa66d66eb0dac26f0ba5f1e","computer","Desktop or Laptop","Windows 10","Chrome 86.0.4240.183","1920x1080","1920x969","DiagramFeedback","DiagramFeedback","DiagramFeedback",1,"1",3,"Screen 3","Zone1","continue_button",48309.24,NA,NA,"",NA,"SportenDiagramFeedback",NA
"80",1604743818694,1,"07/11/2020 11:10:18","BLIND",2977600,NA,"complete",NA,"5fa66d66eb0dac26f0ba5f1e","computer","Desktop or Laptop","Windows 10","Chrome 86.0.4240.183","1920x1080","1920x969","DiagramFeedback","DiagramFeedback","DiagramFeedback",6,"1",1,"Text","advancementZone","continue_button",48309.24,NA,NA,"",NA,"SuezDiagramFeedback",NA
"81",1604743819943,1,"07/11/2020 11:10:19","BLIND",2977600,NA,"complete",NA,"5fa66d66eb0dac26f0ba5f1e","computer","Desktop or Laptop","Windows 10","Chrome 86.0.4240.183","1920x1080","1920x969","DiagramFeedback","DiagramFeedback","DiagramFeedback",6,"1",2,"JoL1","Three","response_button_text",48309.24,NA,NA,"4",1,"SuezDiagramFeedback",NA
"82",1604743871063,1,"07/11/2020 11:11:11","BLIND",2977600,NA,"complete",NA,"5fa66d66eb0dac26f0ba5f1e","computer","Desktop or Laptop","Windows 10","Chrome 86.0.4240.183","1920x1080","1920x969","DiagramFeedback","DiagramFeedback","DiagramFeedback",6,"1",3,"Diagram","DiagBox2","response_text_area",48309.24,NA,NA,"aQ",NA,"SuezDiagramFeedback",NA
"83",1604743871065,1,"07/11/2020 11:11:11","BLIND",2977600,NA,"complete",NA,"5fa66d66eb0dac26f0ba5f1e","computer","Desktop or Laptop","Windows 10","Chrome 86.0.4240.183","1920x1080","1920x969","DiagramFeedback","DiagramFeedback","DiagramFeedback",6,"1",3,"Diagram","DiagBox3","response_text_area",48309.24,NA,NA,"urEVh",NA,"SuezDiagramFeedback",NA
"84",1604743871065,1,"07/11/2020 11:11:11","BLIND",2977600,NA,"complete",NA,"5fa66d66eb0dac26f0ba5f1e","computer","Desktop or Laptop","Windows 10","Chrome 86.0.4240.183","1920x1080","1920x969","DiagramFeedback","DiagramFeedback","DiagramFeedback",6,"1",3,"Diagram","DiagBox4","response_text_area",48309.24,NA,NA,"PhnyfdaOm",NA,"SuezDiagramFeedback",NA
"85",1604743871065,1,"07/11/2020 11:11:11","BLIND",2977600,NA,"complete",NA,"5fa66d66eb0dac26f0ba5f1e","computer","Desktop or Laptop","Windows 10","Chrome 86.0.4240.183","1920x1080","1920x969","DiagramFeedback","DiagramFeedback","DiagramFeedback",6,"1",3,"Diagram","DiagBox1","response_text_area",48309.24,NA,NA,"dajF",NA,"SuezDiagramFeedback",NA
"86",1604743871065,1,"07/11/2020 11:11:11","BLIND",2977600,NA,"complete",NA,"5fa66d66eb0dac26f0ba5f1e","computer","Desktop or Laptop","Windows 10","Chrome 86.0.4240.183","1920x1080","1920x969","DiagramFeedback","DiagramFeedback","DiagramFeedback",6,"1",3,"Diagram","Zone1","continue_button",48309.24,NA,NA,"",NA,"SuezDiagramFeedback",NA
"87",1604743879558,1,"07/11/2020 11:11:19","BLIND",2977600,NA,"complete",NA,"5fa66d66eb0dac26f0ba5f1e","computer","Desktop or Laptop","Windows 10","Chrome 86.0.4240.183","1920x1080","1920x969","DiagramFeedback","DiagramFeedback","DiagramFeedback",6,"1",4,"Feedback","Zone1","continue_button",48309.24,NA,NA,"",NA,"SuezDiagramFeedback",NA
"88",1604743880662,1,"07/11/2020 11:11:20","BLIND",2977600,NA,"complete",NA,"5fa66d66eb0dac26f0ba5f1e","computer","Desktop or Laptop","Windows 10","Chrome 86.0.4240.183","1920x1080","1920x969","DiagramFeedback","DiagramFeedback","DiagramFeedback",6,"1",5,"JoL2","Four","response_button_text",48309.24,NA,NA,"4",1,"SuezDiagramFeedback",NA
"89",1604743881751,1,"07/11/2020 11:11:21","BLIND",2977600,NA,"complete",NA,"5fa66d66eb0dac26f0ba5f1e","computer","Desktop or Laptop","Windows 10","Chrome 86.0.4240.183","1920x1080","1920x969","DiagramFeedback","DiagramFeedback","DiagramFeedback",6,"1",6,"InstructieToets","advancementZone","continue_button",48309.24,NA,NA,"",NA,"SuezDiagramFeedback",NA
"9",1604742858647,1,"07/11/2020 10:54:18","BLIND",2977600,NA,"complete",NA,"5fa66d66eb0dac26f0ba5f1e","computer","Desktop or Laptop","Windows 10","Chrome 86.0.4240.183","1920x1080","1920x969","DiagramFeedback","DiagramFeedback","DiagramFeedback",1,"1",4,"Feedback","Zone1","continue_button",48309.24,NA,NA,"",NA,"SportenDiagramFeedback",NA
"90",1604743921815,1,"07/11/2020 11:12:01","BLIND",2977600,NA,"complete",NA,"5fa66d66eb0dac26f0ba5f1e","computer","Desktop or Laptop","Windows 10","Chrome 86.0.4240.183","1920x1080","1920x969","DiagramFeedback","DiagramFeedback","DiagramFeedback",6,"1",7,"Test","buttonA","response_text_area",48309.24,NA,NA,"oAlA0gu",NA,"SuezDiagramFeedback",NA
"91",1604743921816,1,"07/11/2020 11:12:01","BLIND",2977600,NA,"complete",NA,"5fa66d66eb0dac26f0ba5f1e","computer","Desktop or Laptop","Windows 10","Chrome 86.0.4240.183","1920x1080","1920x969","DiagramFeedback","DiagramFeedback","DiagramFeedback",6,"1",7,"Test","buttonB","continue_button",48309.24,NA,NA,"",NA,"SuezDiagramFeedback",NA
"92",1604743921819,1,"07/11/2020 11:12:01","BLIND",2977600,NA,"complete",NA,"5fa66d66eb0dac26f0ba5f1e","computer","Desktop or Laptop","Windows 10","Chrome 86.0.4240.183","1920x1080","1920x969","DiagramFeedback","DiagramFeedback","",NA,"END TASK",NA,"","","",1143681,NA,NA,"",NA,"",NA
"1",1604093124475,1,"30/10/2020 22:25:24","BLIND",3017711,NA,"complete",NA,"5f9c835b6586b4143dec83c8","computer","Desktop or Laptop","Windows 10","Chrome 86.0.4240.111","1536x864","1536x760","DiagramFeedback","DiagramFeedback","",NA,"BEGIN TASK",NA,"","","",NA,NA,NA,"",NA,"",NA
"10",1604093409226,1,"30/10/2020 22:30:09","BLIND",3017711,NA,"complete",NA,"5f9c835b6586b4143dec83c8","computer","Desktop or Laptop","Windows 10","Chrome 86.0.4240.111","1536x864","1536x760","DiagramFeedback","DiagramFeedback","DiagramFeedback",1,"1",5,"JoL2","Four","response_button_text",48309.24,NA,NA,"4",1,"SportenDiagramFeedback",NA
"11",1604093412425,1,"30/10/2020 22:30:12","BLIND",3017711,NA,"complete",NA,"5f9c835b6586b4143dec83c8","computer","Desktop or Laptop","Windows 10","Chrome 86.0.4240.111","1536x864","1536x760","DiagramFeedback","DiagramFeedback","DiagramFeedback",1,"1",6,"InstructieToets","advancementZone","continue_button",48309.24,NA,NA,"",NA,"SportenDiagramFeedback",NA
"12",1604093567429,1,"30/10/2020 22:32:47","BLIND",3017711,NA,"complete",NA,"5f9c835b6586b4143dec83c8","computer","Desktop or Laptop","Windows 10","Chrome 86.0.4240.111","1536x864","1536x760","DiagramFeedback","DiagramFeedback","DiagramFeedback",1,"1",7,"Test","buttonA","response_text_area",48309.24,NA,NA,"wUfCOk4YKL",NA,"SportenDiagramFeedback",NA
"13",1604093567434,1,"30/10/2020 22:32:47","BLIND",3017711,NA,"complete",NA,"5f9c835b6586b4143dec83c8","computer","Desktop or Laptop","Windows 10","Chrome 86.0.4240.111","1536x864","1536x760","DiagramFeedback","DiagramFeedback","DiagramFeedback",1,"1",7,"Test","buttonB","continue_button",48309.24,NA,NA,"",NA,"SportenDiagramFeedback",NA
"14",1604093571213,1,"30/10/2020 22:32:51","BLIND",3017711,NA,"complete",NA,"5f9c835b6586b4143dec83c8","computer","Desktop or Laptop","Windows 10","Chrome 86.0.4240.111","1536x864","1536x760","DiagramFeedback","DiagramFeedback","DiagramFeedback",1,"1",8,"Klaar4Experiment","advancementZone","continue_button",48309.24,NA,NA,"",NA,"SportenDiagramFeedback",NA
"15",1604093785638,1,"30/10/2020 22:36:25","BLIND",3017711,NA,"complete",NA,"5f9c835b6586b4143dec83c8","computer","Desktop or Laptop","Windows 10","Chrome 86.0.4240.111","1536x864","1536x760","DiagramFeedback","DiagramFeedback","DiagramFeedback",12,"1",1,"Text","advancementZone","continue_button",48309.24,NA,NA,"",NA,"GeldDiagramFeedback",NA
"16",1604093787223,1,"30/10/2020 22:36:27","BLIND",3017711,NA,"complete",NA,"5f9c835b6586b4143dec83c8","computer","Desktop or Laptop","Windows 10","Chrome 86.0.4240.111","1536x864","1536x760","DiagramFeedback","DiagramFeedback","DiagramFeedback",12,"1",2,"JoL1","Two","response_button_text",48309.24,NA,NA,"4",1,"GeldDiagramFeedback",NA
"17",1604093952748,1,"30/10/2020 22:39:12","BLIND",3017711,NA,"complete",NA,"5f9c835b6586b4143dec83c8","computer","Desktop or Laptop","Windows 10","Chrome 86.0.4240.111","1536x864","1536x760","DiagramFeedback","DiagramFeedback","DiagramFeedback",12,"1",3,"Diagram","DiagBox2","response_text_area",48309.24,NA,NA,"EWOpGv",NA,"GeldDiagramFeedback",NA
"18",1604093952754,1,"30/10/2020 22:39:12","BLIND",3017711,NA,"complete",NA,"5f9c835b6586b4143dec83c8","computer","Desktop or Laptop","Windows 10","Chrome 86.0.4240.111","1536x864","1536x760","DiagramFeedback","DiagramFeedback","DiagramFeedback",12,"1",3,"Diagram","DiagBox3","response_text_area",48309.24,NA,NA,"iIO8",NA,"GeldDiagramFeedback",NA
"19",1604093952754,1,"30/10/2020 22:39:12","BLIND",3017711,NA,"complete",NA,"5f9c835b6586b4143dec83c8","computer","Desktop or Laptop","Windows 10","Chrome 86.0.4240.111","1536x864","1536x760","DiagramFeedback","DiagramFeedback","DiagramFeedback",12,"1",3,"Diagram","DiagBox4","response_text_area",48309.24,NA,NA,"fYu22Frt",NA,"GeldDiagramFeedback",NA
"2",1604093207725,1,"30/10/2020 22:26:47","BLIND",3017711,NA,"complete",NA,"5f9c835b6586b4143dec83c8","computer","Desktop or Laptop","Windows 10","Chrome 86.0.4240.111","1536x864","1536x760","DiagramFeedback","DiagramFeedback","DiagramFeedback",1,"1",1,"Text","advancementZone","continue_button",48309.24,NA,NA,"",NA,"SportenDiagramFeedback",NA
"20",1604093952754,1,"30/10/2020 22:39:12","BLIND",3017711,NA,"complete",NA,"5f9c835b6586b4143dec83c8","computer","Desktop or Laptop","Windows 10","Chrome 86.0.4240.111","1536x864","1536x760","DiagramFeedback","DiagramFeedback","DiagramFeedback",12,"1",3,"Diagram","DiagBox1","response_text_area",48309.24,NA,NA,"xsJshXpd",NA,"GeldDiagramFeedback",NA
