"Event_Index","Local_Timestamp","Local_Timezone","Local_Date","Participant_Public_ID","Participant_Private_ID","Participant_Starting_Group","Participant_Status","Participant_Completion_Code","Participant_External_Session_ID","Participant_Device_Type","Participant_Device","Participant_OS","Participant_Browser","Participant_Monitor_Size","Participant_Viewport_Size","randomiser_81rl","Spreadsheet","Spreadsheet_Name","Spreadsheet_Row","Trial_Number","Screen_Number","Screen_Name","Zone_Name","Zone_Type","Reaction_Time","Reaction_Onset","Response_Type","Response","Attempt","display","Diagram_Box_Require_Response"
"1",1601714605550,2,"03/10/2020 10:43:25","BLIND",5934944,NA,"complete",NA,"5f7837368f17cf015cc21f91","computer","Desktop or Laptop","Windows 10","Chrome 85.0.4183.121","2560x1440","2560x1330","DiagramFeedback","DiagramFeedback","",NA,"BEGIN TASK",NA,"","","",NA,NA,NA,"",NA,"",NA
"10",1601714733804,2,"03/10/2020 10:45:33","BLIND",5934944,NA,"complete",NA,"5f7837368f17cf015cc21f91","computer","Desktop or Laptop","Windows 10","Chrome 85.0.4183.121","2560x1440","2560x1330","DiagramFeedback","DiagramFeedback","DiagramFeedback",1,"1",5,"JoL2","Three","response_button_text",25360.9780740746,NA,NA,"3",1,"SportenDiagramFeedback",NA
"11",1601714736340,2,"03/10/2020 10:45:36","BLIND",5934944,NA,"complete",NA,"5f7837368f17cf015cc21f91","computer","Desktop or Laptop","Windows 10","Chrome 85.0.4183.121","2560x1440","2560x1330","DiagramFeedback","DiagramFeedback","DiagramFeedback",1,"1",6,"InstructieToets","advancementZone","continue_button",25360.9780740746,NA,NA,"",NA,"SportenDiagramFeedback",NA
"12",1601714780252,2,"03/10/2020 10:46:20","BLIND",5934944,NA,"complete",NA,"5f7837368f17cf015cc21f91","computer","Desktop or Laptop","Windows 10","Chrome 85.0.4183.121","2560x1440","2560x1330","DiagramFeedback","DiagramFeedback","DiagramFeedback",1,"1",7,"Test","buttonA","response_text_area",25360.9780740746,NA,NA,"V449e4JHXf",NA,"SportenDiagramFeedback",NA
"13",1601714780253,2,"03/10/2020 10:46:20","BLIND",5934944,NA,"complete",NA,"5f7837368f17cf015cc21f91","computer","Desktop or Laptop","Windows 10","Chrome 85.0.4183.121","2560x1440","2560x1330","DiagramFeedback","DiagramFeedback","DiagramFeedback",1,"1",7,"Test","buttonB","continue_button",25360.9780740746,NA,NA,"",NA,"SportenDiagramFeedback",NA
"14",1601714782572,2,"03/10/2020 10:46:22","BLIND",5934944,NA,"complete",NA,"5f7837368f17cf015cc21f91","computer","Desktop or Laptop","Windows 10","Chrome 85.0.4183.121","2560x1440","2560x1330","DiagramFeedback","DiagramFeedback","DiagramFeedback",1,"1",8,"Klaar4Experiment","advancementZone","continue_button",25360.9780740746,NA,NA,"",NA,"SportenDiagramFeedback",NA
"15",1601714835988,2,"03/10/2020 10:47:15","BLIND",5934944,NA,"complete",NA,"5f7837368f17cf015cc21f91","computer","Desktop or Laptop","Windows 10","Chrome 85.0.4183.121","2560x1440","2560x1330","DiagramFeedback","DiagramFeedback","DiagramFeedback",12,"1",1,"Text","advancementZone","continue_button",25360.9780740746,NA,NA,"",NA,"GeldDiagramFeedback",NA
"16",1601714837133,2,"03/10/2020 10:47:17","BLIND",5934944,NA,"complete",NA,"5f7837368f17cf015cc21f91","computer","Desktop or Laptop","Windows 10","Chrome 85.0.4183.121","2560x1440","2560x1330","DiagramFeedback","DiagramFeedback","DiagramFeedback",12,"1",2,"JoL1","One","response_button_text",25360.9780740746,NA,NA,"3",1,"GeldDiagramFeedback",NA
"17",1601714917838,2,"03/10/2020 10:48:37","BLIND",5934944,NA,"complete",NA,"5f7837368f17cf015cc21f91","computer","Desktop or Laptop","Windows 10","Chrome 85.0.4183.121","2560x1440","2560x1330","DiagramFeedback","DiagramFeedback","DiagramFeedback",12,"1",3,"Diagram","DiagBox2","response_text_area",25360.9780740746,NA,NA,"E2rYi3",NA,"GeldDiagramFeedback",NA
"18",1601714917839,2,"03/10/2020 10:48:37","BLIND",5934944,NA,"complete",NA,"5f7837368f17cf015cc21f91","computer","Desktop or Laptop","Windows 10","Chrome 85.0.4183.121","2560x1440","2560x1330","DiagramFeedback","DiagramFeedback","DiagramFeedback",12,"1",3,"Diagram","DiagBox3","response_text_area",25360.9780740746,NA,NA,"lmC3CYz",NA,"GeldDiagramFeedback",NA
"19",1601714917839,2,"03/10/2020 10:48:37","BLIND",5934944,NA,"complete",NA,"5f7837368f17cf015cc21f91","computer","Desktop or Laptop","Windows 10","Chrome 85.0.4183.121","2560x1440","2560x1330","DiagramFeedback","DiagramFeedback","DiagramFeedback",12,"1",3,"Diagram","DiagBox4","response_text_area",25360.9780740746,NA,NA,"Ln1O094H",NA,"GeldDiagramFeedback",NA
"2",1601714640221,2,"03/10/2020 10:44:00","BLIND",5934944,NA,"complete",NA,"5f7837368f17cf015cc21f91","computer","Desktop or Laptop","Windows 10","Chrome 85.0.4183.121","2560x1440","2560x1330","DiagramFeedback","DiagramFeedback","DiagramFeedback",1,"1",1,"Text","advancementZone","continue_button",25360.9780740746,NA,NA,"",NA,"SportenDiagramFeedback",NA
"20",1601714917839,2,"03/10/2020 10:48:37","BLIND",5934944,NA,"complete",NA,"5f7837368f17cf015cc21f91","computer","Desktop or Laptop","Windows 10","Chrome 85.0.4183.121","2560x1440","2560x1330","DiagramFeedback","DiagramFeedback","DiagramFeedback",12,"1",3,"Diagram","DiagBox1","response_text_area",25360.9780740746,NA,NA,"Zsy1eoY2",NA,"GeldDiagramFeedback",NA
"21",1601714917840,2,"03/10/2020 10:48:37","BLIND",5934944,NA,"complete",NA,"5f7837368f17cf015cc21f91","computer","Desktop or Laptop","Windows 10","Chrome 85.0.4183.121","2560x1440","2560x1330","DiagramFeedback","DiagramFeedback","DiagramFeedback",12,"1",3,"Diagram","Zone1","continue_button",25360.9780740746,NA,NA,"",NA,"GeldDiagramFeedback",NA
"22",1601714945628,2,"03/10/2020 10:49:05","BLIND",5934944,NA,"complete",NA,"5f7837368f17cf015cc21f91","computer","Desktop or Laptop","Windows 10","Chrome 85.0.4183.121","2560x1440","2560x1330","DiagramFeedback","DiagramFeedback","DiagramFeedback",12,"1",4,"Feedback","Zone1","continue_button",25360.9780740746,NA,NA,"",NA,"GeldDiagramFeedback",NA
"23",1601714946772,2,"03/10/2020 10:49:06","BLIND",5934944,NA,"complete",NA,"5f7837368f17cf015cc21f91","computer","Desktop or Laptop","Windows 10","Chrome 85.0.4183.121","2560x1440","2560x1330","DiagramFeedback","DiagramFeedback","DiagramFeedback",12,"1",5,"JoL2","One","response_button_text",25360.9780740746,NA,NA,"3",1,"GeldDiagramFeedback",NA
"24",1601714948237,2,"03/10/2020 10:49:08","BLIND",5934944,NA,"complete",NA,"5f7837368f17cf015cc21f91","computer","Desktop or Laptop","Windows 10","Chrome 85.0.4183.121","2560x1440","2560x1330","DiagramFeedback","DiagramFeedback","DiagramFeedback",12,"1",6,"InstructieToets","advancementZone","continue_button",25360.9780740746,NA,NA,"",NA,"GeldDiagramFeedback",NA
"25",1601714999252,2,"03/10/2020 10:49:59","BLIND",5934944,NA,"complete",NA,"5f7837368f17cf015cc21f91","computer","Desktop or Laptop","Windows 10","Chrome 85.0.4183.121","2560x1440","2560x1330","DiagramFeedback","DiagramFeedback","DiagramFeedback",12,"1",7,"Test","buttonA","response_text_area",25360.9780740746,NA,NA,"qDyz3p",NA,"GeldDiagramFeedback",NA
"26",1601714999254,2,"03/10/2020 10:49:59","BLIND",5934944,NA,"complete",NA,"5f7837368f17cf015cc21f91","computer","Desktop or Laptop","Windows 10","Chrome 85.0.4183.121","2560x1440","2560x1330","DiagramFeedback","DiagramFeedback","DiagramFeedback",12,"1",7,"Test","buttonB","continue_button",25360.9780740746,NA,NA,"",NA,"GeldDiagramFeedback",NA
"27",1601715005060,2,"03/10/2020 10:50:05","BLIND",5934944,NA,"complete",NA,"5f7837368f17cf015cc21f91","computer","Desktop or Laptop","Windows 10","Chrome 85.0.4183.121","2560x1440","2560x1330","DiagramFeedback","DiagramFeedback","DiagramFeedback",3,"1",1,"Screen 1","advancementZone","continue_button",25360.9780740746,NA,NA,"",NA,"ReadyForNextTextScreen",NA
"28",1601715049197,2,"03/10/2020 10:50:49","BLIND",5934944,NA,"complete",NA,"5f7837368f17cf015cc21f91","computer","Desktop or Laptop","Windows 10","Chrome 85.0.4183.121","2560x1440","2560x1330","DiagramFeedback","DiagramFeedback","DiagramFeedback",10,"1",1,"Text","advancementZone","continue_button",25360.9780740746,NA,NA,"",NA,"MuziekDiagramFeedback",NA
"29",1601715051949,2,"03/10/2020 10:50:51","BLIND",5934944,NA,"complete",NA,"5f7837368f17cf015cc21f91","computer","Desktop or Laptop","Windows 10","Chrome 85.0.4183.121","2560x1440","2560x1330","DiagramFeedback","DiagramFeedback","DiagramFeedback",10,"1",2,"JoL1","Two","response_button_text",25360.9780740746,NA,NA,"3",1,"MuziekDiagramFeedback",NA
"3",1601714644699,2,"03/10/2020 10:44:04","BLIND",5934944,NA,"complete",NA,"5f7837368f17cf015cc21f91","computer","Desktop or Laptop","Windows 10","Chrome 85.0.4183.121","2560x1440","2560x1330","DiagramFeedback","DiagramFeedback","DiagramFeedback",1,"1",2,"JoL1","Two","response_button_text",25360.9780740746,NA,NA,"3",1,"SportenDiagramFeedback",NA
"30",1601715126294,2,"03/10/2020 10:52:06","BLIND",5934944,NA,"complete",NA,"5f7837368f17cf015cc21f91","computer","Desktop or Laptop","Windows 10","Chrome 85.0.4183.121","2560x1440","2560x1330","DiagramFeedback","DiagramFeedback","DiagramFeedback",10,"1",3,"Diagram","DiagBox1","response_text_area",25360.9780740746,NA,NA,"Baq",NA,"MuziekDiagramFeedback",NA
"31",1601715126296,2,"03/10/2020 10:52:06","BLIND",5934944,NA,"complete",NA,"5f7837368f17cf015cc21f91","computer","Desktop or Laptop","Windows 10","Chrome 85.0.4183.121","2560x1440","2560x1330","DiagramFeedback","DiagramFeedback","DiagramFeedback",10,"1",3,"Diagram","DiagBox2","response_text_area",25360.9780740746,NA,NA,"ixVYV5jDu",NA,"MuziekDiagramFeedback",NA
"32",1601715126296,2,"03/10/2020 10:52:06","BLIND",5934944,NA,"complete",NA,"5f7837368f17cf015cc21f91","computer","Desktop or Laptop","Windows 10","Chrome 85.0.4183.121","2560x1440","2560x1330","DiagramFeedback","DiagramFeedback","DiagramFeedback",10,"1",3,"Diagram","DiagBox3","response_text_area",25360.9780740746,NA,NA,"HnCaiPkL",NA,"MuziekDiagramFeedback",NA
"33",1601715126296,2,"03/10/2020 10:52:06","BLIND",5934944,NA,"complete",NA,"5f7837368f17cf015cc21f91","computer","Desktop or Laptop","Windows 10","Chrome 85.0.4183.121","2560x1440","2560x1330","DiagramFeedback","DiagramFeedback","DiagramFeedback",10,"1",3,"Diagram","DiagBox4","response_text_area",25360.9780740746,NA,NA,"sscer",NA,"MuziekDiagramFeedback",NA
"34",1601715126296,2,"03/10/2020 10:52:06","BLIND",5934944,NA,"complete",NA,"5f7837368f17cf015cc21f91","computer","Desktop or Laptop","Windows 10","Chrome 85.0.4183.121","2560x1440","2560x1330","DiagramFeedback","DiagramFeedback","DiagramFeedback",10,"1",3,"Diagram","Zone1","continue_button",25360.9780740746,NA,NA,"",NA,"MuziekDiagramFeedback",NA
"35",1601715138577,2,"03/10/2020 10:52:18","BLIND",5934944,NA,"complete",NA,"5f7837368f17cf015cc21f91","computer","Desktop or Laptop","Windows 10","Chrome 85.0.4183.121","2560x1440","2560x1330","DiagramFeedback","DiagramFeedback","DiagramFeedback",10,"1",4,"Feedback","Zone1","continue_button",25360.9780740746,NA,NA,"",NA,"MuziekDiagramFeedback",NA
"36",1601715140113,2,"03/10/2020 10:52:20","BLIND",5934944,NA,"complete",NA,"5f7837368f17cf015cc21f91","computer","Desktop or Laptop","Windows 10","Chrome 85.0.4183.121","2560x1440","2560x1330","DiagramFeedback","DiagramFeedback","DiagramFeedback",10,"1",5,"JoL2","Four","response_button_text",25360.9780740746,NA,NA,"3",1,"MuziekDiagramFeedback",NA
"37",1601715141001,2,"03/10/2020 10:52:21","BLIND",5934944,NA,"complete",NA,"5f7837368f17cf015cc21f91","computer","Desktop or Laptop","Windows 10","Chrome 85.0.4183.121","2560x1440","2560x1330","DiagramFeedback","DiagramFeedback","DiagramFeedback",10,"1",6,"InstructieToets","advancementZone","continue_button",25360.9780740746,NA,NA,"",NA,"MuziekDiagramFeedback",NA
"38",1601715242608,2,"03/10/2020 10:54:02","BLIND",5934944,NA,"complete",NA,"5f7837368f17cf015cc21f91","computer","Desktop or Laptop","Windows 10","Chrome 85.0.4183.121","2560x1440","2560x1330","DiagramFeedback","DiagramFeedback","DiagramFeedback",10,"1",7,"Test","buttonA","response_text_area",25360.9780740746,NA,NA,"g3dP31Fyv",NA,"MuziekDiagramFeedback",NA
"39",1601715242610,2,"03/10/2020 10:54:02","BLIND",5934944,NA,"complete",NA,"5f7837368f17cf015cc21f91","computer","Desktop or Laptop","Windows 10","Chrome 85.0.4183.121","2560x1440","2560x1330","DiagramFeedback","DiagramFeedback","DiagramFeedback",10,"1",7,"Test","buttonB","continue_button",25360.9780740746,NA,NA,"",NA,"MuziekDiagramFeedback",NA
"4",1601714720780,2,"03/10/2020 10:45:20","BLIND",5934944,NA,"complete",NA,"5f7837368f17cf015cc21f91","computer","Desktop or Laptop","Windows 10","Chrome 85.0.4183.121","2560x1440","2560x1330","DiagramFeedback","DiagramFeedback","DiagramFeedback",1,"1",3,"Screen 3","DiagBox1","response_text_area",25360.9780740746,NA,NA,"CZ",NA,"SportenDiagramFeedback",NA
"40",1601715247592,2,"03/10/2020 10:54:07","BLIND",5934944,NA,"complete",NA,"5f7837368f17cf015cc21f91","computer","Desktop or Laptop","Windows 10","Chrome 85.0.4183.121","2560x1440","2560x1330","DiagramFeedback","DiagramFeedback","DiagramFeedback",5,"2",1,"Screen 1","advancementZone","continue_button",25360.9780740746,NA,NA,"",NA,"ReadyForNextTextScreen",NA
"41",1601715290608,2,"03/10/2020 10:54:50","BLIND",5934944,NA,"complete",NA,"5f7837368f17cf015cc21f91","computer","Desktop or Laptop","Windows 10","Chrome 85.0.4183.121","2560x1440","2560x1330","DiagramFeedback","DiagramFeedback","DiagramFeedback",6,"1",1,"Text","advancementZone","continue_button",25360.9780740746,NA,NA,"",NA,"SuezDiagramFeedback",NA
"42",1601715291824,2,"03/10/2020 10:54:51","BLIND",5934944,NA,"complete",NA,"5f7837368f17cf015cc21f91","computer","Desktop or Laptop","Windows 10","Chrome 85.0.4183.121","2560x1440","2560x1330","DiagramFeedback","DiagramFeedback","DiagramFeedback",6,"1",2,"JoL1","Two","response_button_text",25360.9780740746,NA,NA,"3",1,"SuezDiagramFeedback",NA
"43",1601715345641,2,"03/10/2020 10:55:45","BLIND",5934944,NA,"complete",NA,"5f7837368f17cf015cc21f91","computer","Desktop or Laptop","Windows 10","Chrome 85.0.4183.121","2560x1440","2560x1330","DiagramFeedback","DiagramFeedback","DiagramFeedback",6,"1",3,"Diagram","DiagBox2","response_text_area",25360.9780740746,NA,NA,"S8r147jhj",NA,"SuezDiagramFeedback",NA
"44",1601715345642,2,"03/10/2020 10:55:45","BLIND",5934944,NA,"complete",NA,"5f7837368f17cf015cc21f91","computer","Desktop or Laptop","Windows 10","Chrome 85.0.4183.121","2560x1440","2560x1330","DiagramFeedback","DiagramFeedback","DiagramFeedback",6,"1",3,"Diagram","DiagBox3","response_text_area",25360.9780740746,NA,NA,"VXvjz7vkMy",NA,"SuezDiagramFeedback",NA
"45",1601715345642,2,"03/10/2020 10:55:45","BLIND",5934944,NA,"complete",NA,"5f7837368f17cf015cc21f91","computer","Desktop or Laptop","Windows 10","Chrome 85.0.4183.121","2560x1440","2560x1330","DiagramFeedback","DiagramFeedback","DiagramFeedback",6,"1",3,"Diagram","DiagBox4","response_text_area",25360.9780740746,NA,NA,"EeABeNVvn8",NA,"SuezDiagramFeedback",NA
"46",1601715345642,2,"03/10/2020 10:55:45","BLIND",5934944,NA,"complete",NA,"5f7837368f17cf015cc21f91","computer","Desktop or Laptop","Windows 10","Chrome 85.0.4183.121","2560x1440","2560x1330","DiagramFeedback","DiagramFeedback","DiagramFeedback",6,"1",3,"Diagram","DiagBox1","response_text_area",25360.9780740746,NA,NA,"bJ8rklr",NA,"SuezDiagramFeedback",NA
"47",1601715345642,2,"03/10/2020 10:55:45","BLIND",5934944,NA,"complete",NA,"5f7837368f17cf015cc21f91","computer","Desktop or Laptop","Windows 10","Chrome 85.0.4183.121","2560x1440","2560x1330","DiagramFeedback","DiagramFeedback","DiagramFeedback",6,"1",3,"Diagram","Zone1","continue_button",25360.9780740746,NA,NA,"",NA,"SuezDiagramFeedback",NA
"48",1601715369280,2,"03/10/2020 10:56:09","BLIND",5934944,NA,"complete",NA,"5f7837368f17cf015cc21f91","computer","Desktop or Laptop","Windows 10","Chrome 85.0.4183.121","2560x1440","2560x1330","DiagramFeedback","DiagramFeedback","DiagramFeedback",6,"1",4,"Feedback","Zone1","continue_button",25360.9780740746,NA,NA,"",NA,"SuezDiagramFeedback",NA
"49",1601715373551,2,"03/10/2020 10:56:13","BLIND",5934944,NA,"complete",NA,"5f7837368f17cf015cc21f91","computer","Desktop or Laptop","Windows 10","Chrome 85.0.4183.121","2560x1440","2560x1330","DiagramFeedback","DiagramFeedback","DiagramFeedback",6,"1",5,"JoL2","Three","response_button_text",25360.9780740746,NA,NA,"3",1,"SuezDiagramFeedback",NA
"5",1601714720782,2,"03/10/2020 10:45:20","BLIND",5934944,NA,"complete",NA,"5f7837368f17cf015cc21f91","computer","Desktop or Laptop","Windows 10","Chrome 85.0.4183.121","2560x1440","2560x1330","DiagramFeedback","DiagramFeedback","DiagramFeedback",1,"1",3,"Screen 3","DiagBox2","response_text_area",25360.9780740746,NA,NA,"a3szZw3",NA,"SportenDiagramFeedback",NA
"50",1601715374702,2,"03/10/2020 10:56:14","BLIND",5934944,NA,"complete",NA,"5f7837368f17cf015cc21f91","computer","Desktop or Laptop","Windows 10","Chrome 85.0.4183.121","2560x1440","2560x1330","DiagramFeedback","DiagramFeedback","DiagramFeedback",6,"1",6,"InstructieToets","advancementZone","continue_button",25360.9780740746,NA,NA,"",NA,"SuezDiagramFeedback",NA
"51",1601715470214,2,"03/10/2020 10:57:50","BLIND",5934944,NA,"complete",NA,"5f7837368f17cf015cc21f91","computer","Desktop or Laptop","Windows 10","Chrome 85.0.4183.121","2560x1440","2560x1330","DiagramFeedback","DiagramFeedback","DiagramFeedback",6,"1",7,"Test","buttonA","response_text_area",25360.9780740746,NA,NA,"sdHtVB",NA,"SuezDiagramFeedback",NA
"52",1601715470215,2,"03/10/2020 10:57:50","BLIND",5934944,NA,"complete",NA,"5f7837368f17cf015cc21f91","computer","Desktop or Laptop","Windows 10","Chrome 85.0.4183.121","2560x1440","2560x1330","DiagramFeedback","DiagramFeedback","DiagramFeedback",6,"1",7,"Test","buttonB","continue_button",25360.9780740746,NA,NA,"",NA,"SuezDiagramFeedback",NA
"53",1601715473558,2,"03/10/2020 10:57:53","BLIND",5934944,NA,"complete",NA,"5f7837368f17cf015cc21f91","computer","Desktop or Laptop","Windows 10","Chrome 85.0.4183.121","2560x1440","2560x1330","DiagramFeedback","DiagramFeedback","DiagramFeedback",7,"3",1,"Screen 1","advancementZone","continue_button",25360.9780740746,NA,NA,"",NA,"ReadyForNextTextScreen",NA
"54",1601715506846,2,"03/10/2020 10:58:26","BLIND",5934944,NA,"complete",NA,"5f7837368f17cf015cc21f91","computer","Desktop or Laptop","Windows 10","Chrome 85.0.4183.121","2560x1440","2560x1330","DiagramFeedback","DiagramFeedback","DiagramFeedback",2,"1",1,"Text","advancementZone","continue_button",25360.9780740746,NA,NA,"",NA,"MetroDiagramFeedback",NA
"55",1601715509486,2,"03/10/2020 10:58:29","BLIND",5934944,NA,"complete",NA,"5f7837368f17cf015cc21f91","computer","Desktop or Laptop","Windows 10","Chrome 85.0.4183.121","2560x1440","2560x1330","DiagramFeedback","DiagramFeedback","DiagramFeedback",2,"1",2,"JoL1","One","response_button_text",25360.9780740746,NA,NA,"3",1,"MetroDiagramFeedback",NA
"56",1601715558183,2,"03/10/2020 10:59:18","BLIND",5934944,NA,"complete",NA,"5f7837368f17cf015cc21f91","computer","Desktop or Laptop","Windows 10","Chrome 85.0.4183.121","2560x1440","2560x1330","DiagramFeedback","DiagramFeedback","DiagramFeedback",2,"1",3,"Diagram","DiagBox1","response_text_area",25360.9780740746,NA,NA,"mXttfx",NA,"MetroDiagramFeedback",NA
"57",1601715558184,2,"03/10/2020 10:59:18","BLIND",5934944,NA,"complete",NA,"5f7837368f17cf015cc21f91","computer","Desktop or Laptop","Windows 10","Chrome 85.0.4183.121","2560x1440","2560x1330","DiagramFeedback","DiagramFeedback","DiagramFeedback",2,"1",3,"Diagram","DiagBox3","response_text_area",25360.9780740746,NA,NA,"GZu",NA,"MetroDiagramFeedback",NA
"58",1601715558184,2,"03/10/2020 10:59:18","BLIND",5934944,NA,"complete",NA,"5f7837368f17cf015cc21f91","computer","Desktop or Laptop","Windows 10","Chrome 85.0.4183.121","2560x1440","2560x1330","DiagramFeedback","DiagramFeedback","DiagramFeedback",2,"1",3,"Diagram","DiagBox4","response_text_area",25360.9780740746,NA,NA,"BFA9ZuO7A",NA,"MetroDiagramFeedback",NA
"59",1601715558184,2,"03/10/2020 10:59:18","BLIND",5934944,NA,"complete",NA,"5f7837368f17cf015cc21f91","computer","Desktop or Laptop","Windows 10","Chrome 85.0.4183.121","2560x1440","2560x1330","DiagramFeedback","DiagramFeedback","DiagramFeedback",2,"1",3,"Diagram","DiagBox2","response_text_area",25360.9780740746,NA,NA,"cPOUYH",NA,"MetroDiagramFeedback",NA
"6",1601714720782,2,"03/10/2020 10:45:20","BLIND",5934944,NA,"complete",NA,"5f7837368f17cf015cc21f91","computer","Desktop or Laptop","Windows 10","Chrome 85.0.4183.121","2560x1440","2560x1330","DiagramFeedback","DiagramFeedback","DiagramFeedback",1,"1",3,"Screen 3","DiagBox3","response_text_area",25360.9780740746,NA,NA,"I4HleBq",NA,"SportenDiagramFeedback",NA
"60",1601715558185,2,"03/10/2020 10:59:18","BLIND",5934944,NA,"complete",NA,"5f7837368f17cf015cc21f91","computer","Desktop or Laptop","Windows 10","Chrome 85.0.4183.121","2560x1440","2560x1330","DiagramFeedback","DiagramFeedback","DiagramFeedback",2,"1",3,"Diagram","Zone3","continue_button",25360.9780740746,NA,NA,"",NA,"MetroDiagramFeedback",NA
"61",1601715572622,2,"03/10/2020 10:59:32","BLIND",5934944,NA,"complete",NA,"5f7837368f17cf015cc21f91","computer","Desktop or Laptop","Windows 10","Chrome 85.0.4183.121","2560x1440","2560x1330","DiagramFeedback","DiagramFeedback","DiagramFeedback",2,"1",4,"Feedback","Zone3","continue_button",25360.9780740746,NA,NA,"",NA,"MetroDiagramFeedback",NA
"62",1601715573597,2,"03/10/2020 10:59:33","BLIND",5934944,NA,"complete",NA,"5f7837368f17cf015cc21f91","computer","Desktop or Laptop","Windows 10","Chrome 85.0.4183.121","2560x1440","2560x1330","DiagramFeedback","DiagramFeedback","DiagramFeedback",2,"1",5,"JoL2","Four","response_button_text",25360.9780740746,NA,NA,"3",1,"MetroDiagramFeedback",NA
"63",1601715574613,2,"03/10/2020 10:59:34","BLIND",5934944,NA,"complete",NA,"5f7837368f17cf015cc21f91","computer","Desktop or Laptop","Windows 10","Chrome 85.0.4183.121","2560x1440","2560x1330","DiagramFeedback","DiagramFeedback","DiagramFeedback",2,"1",6,"InstructieToets","advancementZone","continue_button",25360.9780740746,NA,NA,"",NA,"MetroDiagramFeedback",NA
"64",1601715621405,2,"03/10/2020 11:00:21","BLIND",5934944,NA,"complete",NA,"5f7837368f17cf015cc21f91","computer","Desktop or Laptop","Windows 10","Chrome 85.0.4183.121","2560x1440","2560x1330","DiagramFeedback","DiagramFeedback","DiagramFeedback",2,"1",7,"Test","buttonA","response_text_area",25360.9780740746,NA,NA,"i3lp4f",NA,"MetroDiagramFeedback",NA
"65",1601715621407,2,"03/10/2020 11:00:21","BLIND",5934944,NA,"complete",NA,"5f7837368f17cf015cc21f91","computer","Desktop or Laptop","Windows 10","Chrome 85.0.4183.121","2560x1440","2560x1330","DiagramFeedback","DiagramFeedback","DiagramFeedback",2,"1",7,"Test","buttonB","continue_button",25360.9780740746,NA,NA,"",NA,"MetroDiagramFeedback",NA
"66",1601715624661,2,"03/10/2020 11:00:24","BLIND",5934944,NA,"complete",NA,"5f7837368f17cf015cc21f91","computer","Desktop or Laptop","Windows 10","Chrome 85.0.4183.121","2560x1440","2560x1330","DiagramFeedback","DiagramFeedback","DiagramFeedback",9,"4",1,"Screen 1","advancementZone","continue_button",25360.9780740746,NA,NA,"",NA,"ReadyForNextTextScreen",NA
"67",1601715658949,2,"03/10/2020 11:00:58","BLIND",5934944,NA,"complete",NA,"5f7837368f17cf015cc21f91","computer","Desktop or Laptop","Windows 10","Chrome 85.0.4183.121","2560x1440","2560x1330","DiagramFeedback","DiagramFeedback","DiagramFeedback",4,"1",1,"Text","advancementZone","continue_button",25360.9780740746,NA,NA,"",NA,"BetonDiagramFeedback",NA
"68",1601715659909,2,"03/10/2020 11:00:59","BLIND",5934944,NA,"complete",NA,"5f7837368f17cf015cc21f91","computer","Desktop or Laptop","Windows 10","Chrome 85.0.4183.121","2560x1440","2560x1330","DiagramFeedback","DiagramFeedback","DiagramFeedback",4,"1",2,"JoL1","Null","response_button_text",25360.9780740746,NA,NA,"3",1,"BetonDiagramFeedback",NA
"69",1601715759925,2,"03/10/2020 11:02:39","BLIND",5934944,NA,"complete",NA,"5f7837368f17cf015cc21f91","computer","Desktop or Laptop","Windows 10","Chrome 85.0.4183.121","2560x1440","2560x1330","DiagramFeedback","DiagramFeedback","DiagramFeedback",4,"1",3,"Diagram","DiagBox2","response_text_area",25360.9780740746,NA,NA,"rwniSrG",NA,"BetonDiagramFeedback",NA
"7",1601714720782,2,"03/10/2020 10:45:20","BLIND",5934944,NA,"complete",NA,"5f7837368f17cf015cc21f91","computer","Desktop or Laptop","Windows 10","Chrome 85.0.4183.121","2560x1440","2560x1330","DiagramFeedback","DiagramFeedback","DiagramFeedback",1,"1",3,"Screen 3","DiagBox4","response_text_area",25360.9780740746,NA,NA,"d8xgJW",NA,"SportenDiagramFeedback",NA
"70",1601715759927,2,"03/10/2020 11:02:39","BLIND",5934944,NA,"complete",NA,"5f7837368f17cf015cc21f91","computer","Desktop or Laptop","Windows 10","Chrome 85.0.4183.121","2560x1440","2560x1330","DiagramFeedback","DiagramFeedback","DiagramFeedback",4,"1",3,"Diagram","DiagBox3","response_text_area",25360.9780740746,NA,NA,"UWVe6eH",NA,"BetonDiagramFeedback",NA
"71",1601715759927,2,"03/10/2020 11:02:39","BLIND",5934944,NA,"complete",NA,"5f7837368f17cf015cc21f91","computer","Desktop or Laptop","Windows 10","Chrome 85.0.4183.121","2560x1440","2560x1330","DiagramFeedback","DiagramFeedback","DiagramFeedback",4,"1",3,"Diagram","DiagBox4","response_text_area",25360.9780740746,NA,NA,"wP",NA,"BetonDiagramFeedback",NA
"72",1601715759927,2,"03/10/2020 11:02:39","BLIND",5934944,NA,"complete",NA,"5f7837368f17cf015cc21f91","computer","Desktop or Laptop","Windows 10","Chrome 85.0.4183.121","2560x1440","2560x1330","DiagramFeedback","DiagramFeedback","DiagramFeedback",4,"1",3,"Diagram","DiagBox1","response_text_area",25360.9780740746,NA,NA,"yGi9L",NA,"BetonDiagramFeedback",NA
"73",1601715759927,2,"03/10/2020 11:02:39","BLIND",5934944,NA,"complete",NA,"5f7837368f17cf015cc21f91","computer","Desktop or Laptop","Windows 10","Chrome 85.0.4183.121","2560x1440","2560x1330","DiagramFeedback","DiagramFeedback","DiagramFeedback",4,"1",3,"Diagram","Zone1","continue_button",25360.9780740746,NA,NA,"",NA,"BetonDiagramFeedback",NA
"74",1601715778172,2,"03/10/2020 11:02:58","BLIND",5934944,NA,"complete",NA,"5f7837368f17cf015cc21f91","computer","Desktop or Laptop","Windows 10","Chrome 85.0.4183.121","2560x1440","2560x1330","DiagramFeedback","DiagramFeedback","DiagramFeedback",4,"1",4,"Feedback","Zone1","continue_button",25360.9780740746,NA,NA,"",NA,"BetonDiagramFeedback",NA
"75",1601715780244,2,"03/10/2020 11:03:00","BLIND",5934944,NA,"complete",NA,"5f7837368f17cf015cc21f91","computer","Desktop or Laptop","Windows 10","Chrome 85.0.4183.121","2560x1440","2560x1330","DiagramFeedback","DiagramFeedback","DiagramFeedback",4,"1",5,"JoL2","Three","response_button_text",25360.9780740746,NA,NA,"3",1,"BetonDiagramFeedback",NA
"76",1601715781436,2,"03/10/2020 11:03:01","BLIND",5934944,NA,"complete",NA,"5f7837368f17cf015cc21f91","computer","Desktop or Laptop","Windows 10","Chrome 85.0.4183.121","2560x1440","2560x1330","DiagramFeedback","DiagramFeedback","DiagramFeedback",4,"1",6,"InstructieToets","advancementZone","continue_button",25360.9780740746,NA,NA,"",NA,"BetonDiagramFeedback",NA
"77",1601715830172,2,"03/10/2020 11:03:50","BLIND",5934944,NA,"complete",NA,"5f7837368f17cf015cc21f91","computer","Desktop or Laptop","Windows 10","Chrome 85.0.4183.121","2560x1440","2560x1330","DiagramFeedback","DiagramFeedback","DiagramFeedback",4,"1",7,"Test","buttonA","response_text_area",25360.9780740746,NA,NA,"otJJaLn",NA,"BetonDiagramFeedback",NA
"78",1601715830173,2,"03/10/2020 11:03:50","BLIND",5934944,NA,"complete",NA,"5f7837368f17cf015cc21f91","computer","Desktop or Laptop","Windows 10","Chrome 85.0.4183.121","2560x1440","2560x1330","DiagramFeedback","DiagramFeedback","DiagramFeedback",4,"1",7,"Test","buttonB","continue_button",25360.9780740746,NA,NA,"",NA,"BetonDiagramFeedback",NA
"79",1601715831980,2,"03/10/2020 11:03:51","BLIND",5934944,NA,"complete",NA,"5f7837368f17cf015cc21f91","computer","Desktop or Laptop","Windows 10","Chrome 85.0.4183.121","2560x1440","2560x1330","DiagramFeedback","DiagramFeedback","DiagramFeedback",11,"5",1,"Screen 1","advancementZone","continue_button",25360.9780740746,NA,NA,"",NA,"ReadyForNextTextScreen",NA
"8",1601714720782,2,"03/10/2020 10:45:20","BLIND",5934944,NA,"complete",NA,"5f7837368f17cf015cc21f91","computer","Desktop or Laptop","Windows 10","Chrome 85.0.4183.121","2560x1440","2560x1330","DiagramFeedback","DiagramFeedback","DiagramFeedback",1,"1",3,"Screen 3","Zone1","continue_button",25360.9780740746,NA,NA,"",NA,"SportenDiagramFeedback",NA
"80",1601715874075,2,"03/10/2020 11:04:34","BLIND",5934944,NA,"complete",NA,"5f7837368f17cf015cc21f91","computer","Desktop or Laptop","Windows 10","Chrome 85.0.4183.121","2560x1440","2560x1330","DiagramFeedback","DiagramFeedback","DiagramFeedback",8,"1",1,"Text","advancementZone","continue_button",25360.9780740746,NA,NA,"",NA,"BotoxDiagramFeedback",NA
"81",1601715875499,2,"03/10/2020 11:04:35","BLIND",5934944,NA,"complete",NA,"5f7837368f17cf015cc21f91","computer","Desktop or Laptop","Windows 10","Chrome 85.0.4183.121","2560x1440","2560x1330","DiagramFeedback","DiagramFeedback","DiagramFeedback",8,"1",2,"JoL1","Null","response_button_text",25360.9780740746,NA,NA,"3",1,"BotoxDiagramFeedback",NA
"82",1601715940539,2,"03/10/2020 11:05:40","BLIND",5934944,NA,"complete",NA,"5f7837368f17cf015cc21f91","computer","Desktop or Laptop","Windows 10","Chrome 85.0.4183.121","2560x1440","2560x1330","DiagramFeedback","DiagramFeedback","DiagramFeedback",8,"1",3,"Diagram","DiagBox3","response_text_area",25360.9780740746,NA,NA,"BIWqtXXw",NA,"BotoxDiagramFeedback",NA
"83",1601715940540,2,"03/10/2020 11:05:40","BLIND",5934944,NA,"complete",NA,"5f7837368f17cf015cc21f91","computer","Desktop or Laptop","Windows 10","Chrome 85.0.4183.121","2560x1440","2560x1330","DiagramFeedback","DiagramFeedback","DiagramFeedback",8,"1",3,"Diagram","DiagBox4","response_text_area",25360.9780740746,NA,NA,"xuJo",NA,"BotoxDiagramFeedback",NA
"84",1601715940540,2,"03/10/2020 11:05:40","BLIND",5934944,NA,"complete",NA,"5f7837368f17cf015cc21f91","computer","Desktop or Laptop","Windows 10","Chrome 85.0.4183.121","2560x1440","2560x1330","DiagramFeedback","DiagramFeedback","DiagramFeedback",8,"1",3,"Diagram","DiagBox2","response_text_area",25360.9780740746,NA,NA,"iqc",NA,"BotoxDiagramFeedback",NA
"85",1601715940540,2,"03/10/2020 11:05:40","BLIND",5934944,NA,"complete",NA,"5f7837368f17cf015cc21f91","computer","Desktop or Laptop","Windows 10","Chrome 85.0.4183.121","2560x1440","2560x1330","DiagramFeedback","DiagramFeedback","DiagramFeedback",8,"1",3,"Diagram","DiagBox1","response_text_area",25360.9780740746,NA,NA,"?",NA,"BotoxDiagramFeedback",NA
"86",1601715940540,2,"03/10/2020 11:05:40","BLIND",5934944,NA,"complete",NA,"5f7837368f17cf015cc21f91","computer","Desktop or Laptop","Windows 10","Chrome 85.0.4183.121","2560x1440","2560x1330","DiagramFeedback","DiagramFeedback","DiagramFeedback",8,"1",3,"Diagram","Zone1","continue_button",25360.9780740746,NA,NA,"",NA,"BotoxDiagramFeedback",NA
"87",1601715951499,2,"03/10/2020 11:05:51","BLIND",5934944,NA,"complete",NA,"5f7837368f17cf015cc21f91","computer","Desktop or Laptop","Windows 10","Chrome 85.0.4183.121","2560x1440","2560x1330","DiagramFeedback","DiagramFeedback","DiagramFeedback",8,"1",4,"Feedback","Zone1","continue_button",25360.9780740746,NA,NA,"",NA,"BotoxDiagramFeedback",NA
"88",1601715952379,2,"03/10/2020 11:05:52","BLIND",5934944,NA,"complete",NA,"5f7837368f17cf015cc21f91","computer","Desktop or Laptop","Windows 10","Chrome 85.0.4183.121","2560x1440","2560x1330","DiagramFeedback","DiagramFeedback","DiagramFeedback",8,"1",5,"JoL2","Null","response_button_text",25360.9780740746,NA,NA,"3",1,"BotoxDiagramFeedback",NA
"89",1601715953642,2,"03/10/2020 11:05:53","BLIND",5934944,NA,"complete",NA,"5f7837368f17cf015cc21f91","computer","Desktop or Laptop","Windows 10","Chrome 85.0.4183.121","2560x1440","2560x1330","DiagramFeedback","DiagramFeedback","DiagramFeedback",8,"1",6,"InstructieToets","advancementZone","continue_button",25360.9780740746,NA,NA,"",NA,"BotoxDiagramFeedback",NA
"9",1601714731732,2,"03/10/2020 10:45:31","BLIND",5934944,NA,"complete",NA,"5f7837368f17cf015cc21f91","computer","Desktop or Laptop","Windows 10","Chrome 85.0.4183.121","2560x1440","2560x1330","DiagramFeedback","DiagramFeedback","DiagramFeedback",1,"1",4,"Feedback","Zone1","continue_button",25360.9780740746,NA,NA,"",NA,"SportenDiagramFeedback",NA
"90",1601716010498,2,"03/10/2020 11:06:50","BLIND",5934944,NA,"complete",NA,"5f7837368f17cf015cc21f91","computer","Desktop or Laptop","Windows 10","Chrome 85.0.4183.121","2560x1440","2560x1330","DiagramFeedback","DiagramFeedback","DiagramFeedback",8,"1",7,"Test","buttonA","response_text_area",25360.9780740746,NA,NA,"qO",NA,"BotoxDiagramFeedback",NA
"91",1601716010499,2,"03/10/2020 11:06:50","BLIND",5934944,NA,"complete",NA,"5f7837368f17cf015cc21f91","computer","Desktop or Laptop","Windows 10","Chrome 85.0.4183.121","2560x1440","2560x1330","DiagramFeedback","DiagramFeedback","DiagramFeedback",8,"1",7,"Test","buttonB","continue_button",25360.9780740746,NA,NA,"",NA,"BotoxDiagramFeedback",NA
"92",1601716010502,2,"03/10/2020 11:06:50","BLIND",5934944,NA,"complete",NA,"5f7837368f17cf015cc21f91","computer","Desktop or Laptop","Windows 10","Chrome 85.0.4183.121","2560x1440","2560x1330","DiagramFeedback","DiagramFeedback","",NA,"END TASK",NA,"","","",1404952,NA,NA,"",NA,"",NA
"1",1601667274064,2,"02/10/2020 21:34:34","BLIND",6761511,NA,"complete",NA,"5f777afc5279d22b4717e970","computer","Desktop or Laptop","Windows 10","Chrome 85.0.4183.121","1920x1080","1920x979","DiagramFeedback","DiagramFeedback","",NA,"BEGIN TASK",NA,"","","",NA,NA,NA,"",NA,"",NA
"10",1601667433684,2,"02/10/2020 21:37:13","BLIND",6761511,NA,"complete",NA,"5f777afc5279d22b4717e970","computer","Desktop or Laptop","Windows 10","Chrome 85.0.4183.121","1920x1080","1920x979","DiagramFeedback","DiagramFeedback","DiagramFeedback",1,"1",5,"JoL2","Four","response_button_text",25360.9780740746,NA,NA,"3",1,"SportenDiagramFeedback",NA
"11",1601667434756,2,"02/10/2020 21:37:14","BLIND",6761511,NA,"complete",NA,"5f777afc5279d22b4717e970","computer","Desktop or Laptop","Windows 10","Chrome 85.0.4183.121","1920x1080","1920x979","DiagramFeedback","DiagramFeedback","DiagramFeedback",1,"1",6,"InstructieToets","advancementZone","continue_button",25360.9780740746,NA,NA,"",NA,"SportenDiagramFeedback",NA
"12",1601667495452,2,"02/10/2020 21:38:15","BLIND",6761511,NA,"complete",NA,"5f777afc5279d22b4717e970","computer","Desktop or Laptop","Windows 10","Chrome 85.0.4183.121","1920x1080","1920x979","DiagramFeedback","DiagramFeedback","DiagramFeedback",1,"1",7,"Test","buttonA","response_text_area",25360.9780740746,NA,NA,"OePTuk",NA,"SportenDiagramFeedback",NA
"13",1601667495454,2,"02/10/2020 21:38:15","BLIND",6761511,NA,"complete",NA,"5f777afc5279d22b4717e970","computer","Desktop or Laptop","Windows 10","Chrome 85.0.4183.121","1920x1080","1920x979","DiagramFeedback","DiagramFeedback","DiagramFeedback",1,"1",7,"Test","buttonB","continue_button",25360.9780740746,NA,NA,"",NA,"SportenDiagramFeedback",NA
"14",1601667497516,2,"02/10/2020 21:38:17","BLIND",6761511,NA,"complete",NA,"5f777afc5279d22b4717e970","computer","Desktop or Laptop","Windows 10","Chrome 85.0.4183.121","1920x1080","1920x979","DiagramFeedback","DiagramFeedback","DiagramFeedback",1,"1",8,"Klaar4Experiment","advancementZone","continue_button",25360.9780740746,NA,NA,"",NA,"SportenDiagramFeedback",NA
"15",1601667577251,2,"02/10/2020 21:39:37","BLIND",6761511,NA,"complete",NA,"5f777afc5279d22b4717e970","computer","Desktop or Laptop","Windows 10","Chrome 85.0.4183.121","1920x1080","1920x979","DiagramFeedback","DiagramFeedback","DiagramFeedback",12,"1",1,"Text","advancementZone","continue_button",25360.9780740746,NA,NA,"",NA,"GeldDiagramFeedback",NA
"16",1601667579091,2,"02/10/2020 21:39:39","BLIND",6761511,NA,"complete",NA,"5f777afc5279d22b4717e970","computer","Desktop or Laptop","Windows 10","Chrome 85.0.4183.121","1920x1080","1920x979","DiagramFeedback","DiagramFeedback","DiagramFeedback",12,"1",2,"JoL1","Three","response_button_text",25360.9780740746,NA,NA,"3",1,"GeldDiagramFeedback",NA
"17",1601667707683,2,"02/10/2020 21:41:47","BLIND",6761511,NA,"complete",NA,"5f777afc5279d22b4717e970","computer","Desktop or Laptop","Windows 10","Chrome 85.0.4183.121","1920x1080","1920x979","DiagramFeedback","DiagramFeedback","DiagramFeedback",12,"1",3,"Diagram","DiagBox2","response_text_area",25360.9780740746,NA,NA,"448t3i",NA,"GeldDiagramFeedback",NA
"18",1601667707686,2,"02/10/2020 21:41:47","BLIND",6761511,NA,"complete",NA,"5f777afc5279d22b4717e970","computer","Desktop or Laptop","Windows 10","Chrome 85.0.4183.121","1920x1080","1920x979","DiagramFeedback","DiagramFeedback","DiagramFeedback",12,"1",3,"Diagram","DiagBox3","response_text_area",25360.9780740746,NA,NA,"fFvDo8cCc",NA,"GeldDiagramFeedback",NA
"19",1601667707686,2,"02/10/2020 21:41:47","BLIND",6761511,NA,"complete",NA,"5f777afc5279d22b4717e970","computer","Desktop or Laptop","Windows 10","Chrome 85.0.4183.121","1920x1080","1920x979","DiagramFeedback","DiagramFeedback","DiagramFeedback",12,"1",3,"Diagram","DiagBox4","response_text_area",25360.9780740746,NA,NA,"0rAs0L",NA,"GeldDiagramFeedback",NA
"2",1601667316048,2,"02/10/2020 21:35:16","BLIND",6761511,NA,"complete",NA,"5f777afc5279d22b4717e970","computer","Desktop or Laptop","Windows 10","Chrome 85.0.4183.121","1920x1080","1920x979","DiagramFeedback","DiagramFeedback","DiagramFeedback",1,"1",1,"Text","advancementZone","continue_button",25360.9780740746,NA,NA,"",NA,"SportenDiagramFeedback",NA
"20",1601667707686,2,"02/10/2020 21:41:47","BLIND",6761511,NA,"complete",NA,"5f777afc5279d22b4717e970","computer","Desktop or Laptop","Windows 10","Chrome 85.0.4183.121","1920x1080","1920x979","DiagramFeedback","DiagramFeedback","DiagramFeedback",12,"1",3,"Diagram","DiagBox1","response_text_area",25360.9780740746,NA,NA,"VMRwMLsE",NA,"GeldDiagramFeedback",NA
"21",1601667707686,2,"02/10/2020 21:41:47","BLIND",6761511,NA,"complete",NA,"5f777afc5279d22b4717e970","computer","Desktop or Laptop","Windows 10","Chrome 85.0.4183.121","1920x1080","1920x979","DiagramFeedback","DiagramFeedback","DiagramFeedback",12,"1",3,"Diagram","Zone1","continue_button",25360.9780740746,NA,NA,"",NA,"GeldDiagramFeedback",NA
"22",1601667737345,2,"02/10/2020 21:42:17","BLIND",6761511,NA,"complete",NA,"5f777afc5279d22b4717e970","computer","Desktop or Laptop","Windows 10","Chrome 85.0.4183.121","1920x1080","1920x979","DiagramFeedback","DiagramFeedback","DiagramFeedback",12,"1",4,"Feedback","Zone1","continue_button",25360.9780740746,NA,NA,"",NA,"GeldDiagramFeedback",NA
"23",1601667738761,2,"02/10/2020 21:42:18","BLIND",6761511,NA,"complete",NA,"5f777afc5279d22b4717e970","computer","Desktop or Laptop","Windows 10","Chrome 85.0.4183.121","1920x1080","1920x979","DiagramFeedback","DiagramFeedback","DiagramFeedback",12,"1",5,"JoL2","Three","response_button_text",25360.9780740746,NA,NA,"3",1,"GeldDiagramFeedback",NA
"24",1601667740217,2,"02/10/2020 21:42:20","BLIND",6761511,NA,"complete",NA,"5f777afc5279d22b4717e970","computer","Desktop or Laptop","Windows 10","Chrome 85.0.4183.121","1920x1080","1920x979","DiagramFeedback","DiagramFeedback","DiagramFeedback",12,"1",6,"InstructieToets","advancementZone","continue_button",25360.9780740746,NA,NA,"",NA,"GeldDiagramFeedback",NA
"25",1601667806145,2,"02/10/2020 21:43:26","BLIND",6761511,NA,"complete",NA,"5f777afc5279d22b4717e970","computer","Desktop or Laptop","Windows 10","Chrome 85.0.4183.121","1920x1080","1920x979","DiagramFeedback","DiagramFeedback","DiagramFeedback",12,"1",7,"Test","buttonA","response_text_area",25360.9780740746,NA,NA,"5rlj",NA,"GeldDiagramFeedback",NA
"26",1601667806147,2,"02/10/2020 21:43:26","BLIND",6761511,NA,"complete",NA,"5f777afc5279d22b4717e970","computer","Desktop or Laptop","Windows 10","Chrome 85.0.4183.121","1920x1080","1920x979","DiagramFeedback","DiagramFeedback","DiagramFeedback",12,"1",7,"Test","buttonB","continue_button",25360.9780740746,NA,NA,"",NA,"GeldDiagramFeedback",NA
"27",1601667809112,2,"02/10/2020 21:43:29","BLIND",6761511,NA,"complete",NA,"5f777afc5279d22b4717e970","computer","Desktop or Laptop","Windows 10","Chrome 85.0.4183.121","1920x1080","1920x979","DiagramFeedback","DiagramFeedback","DiagramFeedback",3,"1",1,"Screen 1","advancementZone","continue_button",25360.9780740746,NA,NA,"",NA,"ReadyForNextTextScreen",NA
"28",1601667847513,2,"02/10/2020 21:44:07","BLIND",6761511,NA,"complete",NA,"5f777afc5279d22b4717e970","computer","Desktop or Laptop","Windows 10","Chrome 85.0.4183.121","1920x1080","1920x979","DiagramFeedback","DiagramFeedback","DiagramFeedback",8,"1",1,"Text","advancementZone","continue_button",25360.9780740746,NA,NA,"",NA,"BotoxDiagramFeedback",NA
"29",1601667849848,2,"02/10/2020 21:44:09","BLIND",6761511,NA,"complete",NA,"5f777afc5279d22b4717e970","computer","Desktop or Laptop","Windows 10","Chrome 85.0.4183.121","1920x1080","1920x979","DiagramFeedback","DiagramFeedback","DiagramFeedback",8,"1",2,"JoL1","Two","response_button_text",25360.9780740746,NA,NA,"3",1,"BotoxDiagramFeedback",NA
"3",1601667319406,2,"02/10/2020 21:35:19","BLIND",6761511,NA,"complete",NA,"5f777afc5279d22b4717e970","computer","Desktop or Laptop","Windows 10","Chrome 85.0.4183.121","1920x1080","1920x979","DiagramFeedback","DiagramFeedback","DiagramFeedback",1,"1",2,"JoL1","Three","response_button_text",25360.9780740746,NA,NA,"3",1,"SportenDiagramFeedback",NA
"30",1601667915169,2,"02/10/2020 21:45:15","BLIND",6761511,NA,"complete",NA,"5f777afc5279d22b4717e970","computer","Desktop or Laptop","Windows 10","Chrome 85.0.4183.121","1920x1080","1920x979","DiagramFeedback","DiagramFeedback","DiagramFeedback",8,"1",3,"Diagram","DiagBox3","response_text_area",25360.9780740746,NA,NA,"?",NA,"BotoxDiagramFeedback",NA
"31",1601667915171,2,"02/10/2020 21:45:15","BLIND",6761511,NA,"complete",NA,"5f777afc5279d22b4717e970","computer","Desktop or Laptop","Windows 10","Chrome 85.0.4183.121","1920x1080","1920x979","DiagramFeedback","DiagramFeedback","DiagramFeedback",8,"1",3,"Diagram","DiagBox4","response_text_area",25360.9780740746,NA,NA,"isPNTHiJ",NA,"BotoxDiagramFeedback",NA
"32",1601667915171,2,"02/10/2020 21:45:15","BLIND",6761511,NA,"complete",NA,"5f777afc5279d22b4717e970","computer","Desktop or Laptop","Windows 10","Chrome 85.0.4183.121","1920x1080","1920x979","DiagramFeedback","DiagramFeedback","DiagramFeedback",8,"1",3,"Diagram","DiagBox2","response_text_area",25360.9780740746,NA,NA,"W8X01pkO",NA,"BotoxDiagramFeedback",NA
"33",1601667915171,2,"02/10/2020 21:45:15","BLIND",6761511,NA,"complete",NA,"5f777afc5279d22b4717e970","computer","Desktop or Laptop","Windows 10","Chrome 85.0.4183.121","1920x1080","1920x979","DiagramFeedback","DiagramFeedback","DiagramFeedback",8,"1",3,"Diagram","DiagBox1","response_text_area",25360.9780740746,NA,NA,"09lJDThMLM",NA,"BotoxDiagramFeedback",NA
"34",1601667915171,2,"02/10/2020 21:45:15","BLIND",6761511,NA,"complete",NA,"5f777afc5279d22b4717e970","computer","Desktop or Laptop","Windows 10","Chrome 85.0.4183.121","1920x1080","1920x979","DiagramFeedback","DiagramFeedback","DiagramFeedback",8,"1",3,"Diagram","Zone1","continue_button",25360.9780740746,NA,NA,"",NA,"BotoxDiagramFeedback",NA
"35",1601667944254,2,"02/10/2020 21:45:44","BLIND",6761511,NA,"complete",NA,"5f777afc5279d22b4717e970","computer","Desktop or Laptop","Windows 10","Chrome 85.0.4183.121","1920x1080","1920x979","DiagramFeedback","DiagramFeedback","DiagramFeedback",8,"1",4,"Feedback","Zone1","continue_button",25360.9780740746,NA,NA,"",NA,"BotoxDiagramFeedback",NA
"36",1601667945639,2,"02/10/2020 21:45:45","BLIND",6761511,NA,"complete",NA,"5f777afc5279d22b4717e970","computer","Desktop or Laptop","Windows 10","Chrome 85.0.4183.121","1920x1080","1920x979","DiagramFeedback","DiagramFeedback","DiagramFeedback",8,"1",5,"JoL2","Three","response_button_text",25360.9780740746,NA,NA,"3",1,"BotoxDiagramFeedback",NA
"37",1601667946534,2,"02/10/2020 21:45:46","BLIND",6761511,NA,"complete",NA,"5f777afc5279d22b4717e970","computer","Desktop or Laptop","Windows 10","Chrome 85.0.4183.121","1920x1080","1920x979","DiagramFeedback","DiagramFeedback","DiagramFeedback",8,"1",6,"InstructieToets","advancementZone","continue_button",25360.9780740746,NA,NA,"",NA,"BotoxDiagramFeedback",NA
"38",1601668057494,2,"02/10/2020 21:47:37","BLIND",6761511,NA,"complete",NA,"5f777afc5279d22b4717e970","computer","Desktop or Laptop","Windows 10","Chrome 85.0.4183.121","1920x1080","1920x979","DiagramFeedback","DiagramFeedback","DiagramFeedback",8,"1",7,"Test","buttonA","response_text_area",25360.9780740746,NA,NA,"g8zwr8",NA,"BotoxDiagramFeedback",NA
"39",1601668057495,2,"02/10/2020 21:47:37","BLIND",6761511,NA,"complete",NA,"5f777afc5279d22b4717e970","computer","Desktop or Laptop","Windows 10","Chrome 85.0.4183.121","1920x1080","1920x979","DiagramFeedback","DiagramFeedback","DiagramFeedback",8,"1",7,"Test","buttonB","continue_button",25360.9780740746,NA,NA,"",NA,"BotoxDiagramFeedback",NA
"4",1601667416335,2,"02/10/2020 21:36:56","BLIND",6761511,NA,"complete",NA,"5f777afc5279d22b4717e970","computer","Desktop or Laptop","Windows 10","Chrome 85.0.4183.121","1920x1080","1920x979","DiagramFeedback","DiagramFeedback","DiagramFeedback",1,"1",3,"Screen 3","DiagBox1","response_text_area",25360.9780740746,NA,NA,"mBYceIj4",NA,"SportenDiagramFeedback",NA
"40",1601668069109,2,"02/10/2020 21:47:49","BLIND",6761511,NA,"complete",NA,"5f777afc5279d22b4717e970","computer","Desktop or Laptop","Windows 10","Chrome 85.0.4183.121","1920x1080","1920x979","DiagramFeedback","DiagramFeedback","DiagramFeedback",5,"2",1,"Screen 1","advancementZone","continue_button",25360.9780740746,NA,NA,"",NA,"ReadyForNextTextScreen",NA
"41",1601668131949,2,"02/10/2020 21:48:51","BLIND",6761511,NA,"complete",NA,"5f777afc5279d22b4717e970","computer","Desktop or Laptop","Windows 10","Chrome 85.0.4183.121","1920x1080","1920x979","DiagramFeedback","DiagramFeedback","DiagramFeedback",10,"1",1,"Text","advancementZone","continue_button",25360.9780740746,NA,NA,"",NA,"MuziekDiagramFeedback",NA
"42",1601668133246,2,"02/10/2020 21:48:53","BLIND",6761511,NA,"complete",NA,"5f777afc5279d22b4717e970","computer","Desktop or Laptop","Windows 10","Chrome 85.0.4183.121","1920x1080","1920x979","DiagramFeedback","DiagramFeedback","DiagramFeedback",10,"1",2,"JoL1","Two","response_button_text",25360.9780740746,NA,NA,"3",1,"MuziekDiagramFeedback",NA
"43",1601668173142,2,"02/10/2020 21:49:33","BLIND",6761511,NA,"complete",NA,"5f777afc5279d22b4717e970","computer","Desktop or Laptop","Windows 10","Chrome 85.0.4183.121","1920x1080","1920x979","DiagramFeedback","DiagramFeedback","DiagramFeedback",10,"1",3,"Diagram","DiagBox1","response_text_area",25360.9780740746,NA,NA,"rzox",NA,"MuziekDiagramFeedback",NA
"44",1601668173145,2,"02/10/2020 21:49:33","BLIND",6761511,NA,"complete",NA,"5f777afc5279d22b4717e970","computer","Desktop or Laptop","Windows 10","Chrome 85.0.4183.121","1920x1080","1920x979","DiagramFeedback","DiagramFeedback","DiagramFeedback",10,"1",3,"Diagram","DiagBox2","response_text_area",25360.9780740746,NA,NA,"Y7oclG2",NA,"MuziekDiagramFeedback",NA
"45",1601668173145,2,"02/10/2020 21:49:33","BLIND",6761511,NA,"complete",NA,"5f777afc5279d22b4717e970","computer","Desktop or Laptop","Windows 10","Chrome 85.0.4183.121","1920x1080","1920x979","DiagramFeedback","DiagramFeedback","DiagramFeedback",10,"1",3,"Diagram","DiagBox3","response_text_area",25360.9780740746,NA,NA,"T1OzfnoZj",NA,"MuziekDiagramFeedback",NA
"46",1601668173146,2,"02/10/2020 21:49:33","BLIND",6761511,NA,"complete",NA,"5f777afc5279d22b4717e970","computer","Desktop or Laptop","Windows 10","Chrome 85.0.4183.121","1920x1080","1920x979","DiagramFeedback","DiagramFeedback","DiagramFeedback",10,"1",3,"Diagram","DiagBox4","response_text_area",25360.9780740746,NA,NA,"?",NA,"MuziekDiagramFeedback",NA
"47",1601668173146,2,"02/10/2020 21:49:33","BLIND",6761511,NA,"complete",NA,"5f777afc5279d22b4717e970","computer","Desktop or Laptop","Windows 10","Chrome 85.0.4183.121","1920x1080","1920x979","DiagramFeedback","DiagramFeedback","DiagramFeedback",10,"1",3,"Diagram","Zone1","continue_button",25360.9780740746,NA,NA,"",NA,"MuziekDiagramFeedback",NA
"48",1601668186276,2,"02/10/2020 21:49:46","BLIND",6761511,NA,"complete",NA,"5f777afc5279d22b4717e970","computer","Desktop or Laptop","Windows 10","Chrome 85.0.4183.121","1920x1080","1920x979","DiagramFeedback","DiagramFeedback","DiagramFeedback",10,"1",4,"Feedback","Zone1","continue_button",25360.9780740746,NA,NA,"",NA,"MuziekDiagramFeedback",NA
"49",1601668187797,2,"02/10/2020 21:49:47","BLIND",6761511,NA,"complete",NA,"5f777afc5279d22b4717e970","computer","Desktop or Laptop","Windows 10","Chrome 85.0.4183.121","1920x1080","1920x979","DiagramFeedback","DiagramFeedback","DiagramFeedback",10,"1",5,"JoL2","Three","response_button_text",25360.9780740746,NA,NA,"3",1,"MuziekDiagramFeedback",NA
"5",1601667416337,2,"02/10/2020 21:36:56","BLIND",6761511,NA,"complete",NA,"5f777afc5279d22b4717e970","computer","Desktop or Laptop","Windows 10","Chrome 85.0.4183.121","1920x1080","1920x979","DiagramFeedback","DiagramFeedback","DiagramFeedback",1,"1",3,"Screen 3","DiagBox2","response_text_area",25360.9780740746,NA,NA,"1y2bi",NA,"SportenDiagramFeedback",NA
"50",1601668189708,2,"02/10/2020 21:49:49","BLIND",6761511,NA,"complete",NA,"5f777afc5279d22b4717e970","computer","Desktop or Laptop","Windows 10","Chrome 85.0.4183.121","1920x1080","1920x979","DiagramFeedback","DiagramFeedback","DiagramFeedback",10,"1",6,"InstructieToets","advancementZone","continue_button",25360.9780740746,NA,NA,"",NA,"MuziekDiagramFeedback",NA
"51",1601668264836,2,"02/10/2020 21:51:04","BLIND",6761511,NA,"complete",NA,"5f777afc5279d22b4717e970","computer","Desktop or Laptop","Windows 10","Chrome 85.0.4183.121","1920x1080","1920x979","DiagramFeedback","DiagramFeedback","DiagramFeedback",10,"1",7,"Test","buttonA","response_text_area",25360.9780740746,NA,NA,"hS4FJ",NA,"MuziekDiagramFeedback",NA
"52",1601668264838,2,"02/10/2020 21:51:04","BLIND",6761511,NA,"complete",NA,"5f777afc5279d22b4717e970","computer","Desktop or Laptop","Windows 10","Chrome 85.0.4183.121","1920x1080","1920x979","DiagramFeedback","DiagramFeedback","DiagramFeedback",10,"1",7,"Test","buttonB","continue_button",25360.9780740746,NA,NA,"",NA,"MuziekDiagramFeedback",NA
"53",1601668266356,2,"02/10/2020 21:51:06","BLIND",6761511,NA,"complete",NA,"5f777afc5279d22b4717e970","computer","Desktop or Laptop","Windows 10","Chrome 85.0.4183.121","1920x1080","1920x979","DiagramFeedback","DiagramFeedback","DiagramFeedback",7,"3",1,"Screen 1","advancementZone","continue_button",25360.9780740746,NA,NA,"",NA,"ReadyForNextTextScreen",NA
"54",1601668311067,2,"02/10/2020 21:51:51","BLIND",6761511,NA,"complete",NA,"5f777afc5279d22b4717e970","computer","Desktop or Laptop","Windows 10","Chrome 85.0.4183.121","1920x1080","1920x979","DiagramFeedback","DiagramFeedback","DiagramFeedback",4,"1",1,"Text","advancementZone","continue_button",25360.9780740746,NA,NA,"",NA,"BetonDiagramFeedback",NA
"55",1601668312403,2,"02/10/2020 21:51:52","BLIND",6761511,NA,"complete",NA,"5f777afc5279d22b4717e970","computer","Desktop or Laptop","Windows 10","Chrome 85.0.4183.121","1920x1080","1920x979","DiagramFeedback","DiagramFeedback","DiagramFeedback",4,"1",2,"JoL1","Three","response_button_text",25360.9780740746,NA,NA,"3",1,"BetonDiagramFeedback",NA
"56",1601668363981,2,"02/10/2020 21:52:43","BLIND",6761511,NA,"complete",NA,"5f777afc5279d22b4717e970","computer","Desktop or Laptop","Windows 10","Chrome 85.0.4183.121","1920x1080","1920x979","DiagramFeedback","DiagramFeedback","DiagramFeedback",4,"1",3,"Diagram","DiagBox2","response_text_area",25360.9780740746,NA,NA,"jl",NA,"BetonDiagramFeedback",NA
"57",1601668363983,2,"02/10/2020 21:52:43","BLIND",6761511,NA,"complete",NA,"5f777afc5279d22b4717e970","computer","Desktop or Laptop","Windows 10","Chrome 85.0.4183.121","1920x1080","1920x979","DiagramFeedback","DiagramFeedback","DiagramFeedback",4,"1",3,"Diagram","DiagBox3","response_text_area",25360.9780740746,NA,NA,"oW5B",NA,"BetonDiagramFeedback",NA
"58",1601668363983,2,"02/10/2020 21:52:43","BLIND",6761511,NA,"complete",NA,"5f777afc5279d22b4717e970","computer","Desktop or Laptop","Windows 10","Chrome 85.0.4183.121","1920x1080","1920x979","DiagramFeedback","DiagramFeedback","DiagramFeedback",4,"1",3,"Diagram","DiagBox4","response_text_area",25360.9780740746,NA,NA,"eKJ46Z7mM",NA,"BetonDiagramFeedback",NA
"59",1601668363983,2,"02/10/2020 21:52:43","BLIND",6761511,NA,"complete",NA,"5f777afc5279d22b4717e970","computer","Desktop or Laptop","Windows 10","Chrome 85.0.4183.121","1920x1080","1920x979","DiagramFeedback","DiagramFeedback","DiagramFeedback",4,"1",3,"Diagram","DiagBox1","response_text_area",25360.9780740746,NA,NA,"DaBU",NA,"BetonDiagramFeedback",NA
"6",1601667416337,2,"02/10/2020 21:36:56","BLIND",6761511,NA,"complete",NA,"5f777afc5279d22b4717e970","computer","Desktop or Laptop","Windows 10","Chrome 85.0.4183.121","1920x1080","1920x979","DiagramFeedback","DiagramFeedback","DiagramFeedback",1,"1",3,"Screen 3","DiagBox3","response_text_area",25360.9780740746,NA,NA,"?",NA,"SportenDiagramFeedback",NA
"60",1601668363983,2,"02/10/2020 21:52:43","BLIND",6761511,NA,"complete",NA,"5f777afc5279d22b4717e970","computer","Desktop or Laptop","Windows 10","Chrome 85.0.4183.121","1920x1080","1920x979","DiagramFeedback","DiagramFeedback","DiagramFeedback",4,"1",3,"Diagram","Zone1","continue_button",25360.9780740746,NA,NA,"",NA,"BetonDiagramFeedback",NA
"61",1601668381387,2,"02/10/2020 21:53:01","BLIND",6761511,NA,"complete",NA,"5f777afc5279d22b4717e970","computer","Desktop or Laptop","Windows 10","Chrome 85.0.4183.121","1920x1080","1920x979","DiagramFeedback","DiagramFeedback","DiagramFeedback",4,"1",4,"Feedback","Zone1","continue_button",25360.9780740746,NA,NA,"",NA,"BetonDiagramFeedback",NA
"62",1601668382059,2,"02/10/2020 21:53:02","BLIND",6761511,NA,"complete",NA,"5f777afc5279d22b4717e970","computer","Desktop or Laptop","Windows 10","Chrome 85.0.4183.121","1920x1080","1920x979","DiagramFeedback","DiagramFeedback","DiagramFeedback",4,"1",5,"JoL2","Four","response_button_text",25360.9780740746,NA,NA,"3",1,"BetonDiagramFeedback",NA
"63",1601668384043,2,"02/10/2020 21:53:04","BLIND",6761511,NA,"complete",NA,"5f777afc5279d22b4717e970","computer","Desktop or Laptop","Windows 10","Chrome 85.0.4183.121","1920x1080","1920x979","DiagramFeedback","DiagramFeedback","DiagramFeedback",4,"1",6,"InstructieToets","advancementZone","continue_button",25360.9780740746,NA,NA,"",NA,"BetonDiagramFeedback",NA
"64",1601668427947,2,"02/10/2020 21:53:47","BLIND",6761511,NA,"complete",NA,"5f777afc5279d22b4717e970","computer","Desktop or Laptop","Windows 10","Chrome 85.0.4183.121","1920x1080","1920x979","DiagramFeedback","DiagramFeedback","DiagramFeedback",4,"1",7,"Test","buttonA","response_text_area",25360.9780740746,NA,NA,"M89ecsJIQ7",NA,"BetonDiagramFeedback",NA
"65",1601668427948,2,"02/10/2020 21:53:47","BLIND",6761511,NA,"complete",NA,"5f777afc5279d22b4717e970","computer","Desktop or Laptop","Windows 10","Chrome 85.0.4183.121","1920x1080","1920x979","DiagramFeedback","DiagramFeedback","DiagramFeedback",4,"1",7,"Test","buttonB","continue_button",25360.9780740746,NA,NA,"",NA,"BetonDiagramFeedback",NA
"66",1601668430242,2,"02/10/2020 21:53:50","BLIND",6761511,NA,"complete",NA,"5f777afc5279d22b4717e970","computer","Desktop or Laptop","Windows 10","Chrome 85.0.4183.121","1920x1080","1920x979","DiagramFeedback","DiagramFeedback","DiagramFeedback",9,"4",1,"Screen 1","advancementZone","continue_button",25360.9780740746,NA,NA,"",NA,"ReadyForNextTextScreen",NA
"67",1601668500850,2,"02/10/2020 21:55:00","BLIND",6761511,NA,"complete",NA,"5f777afc5279d22b4717e970","computer","Desktop or Laptop","Windows 10","Chrome 85.0.4183.121","1920x1080","1920x979","DiagramFeedback","DiagramFeedback","DiagramFeedback",2,"1",1,"Text","advancementZone","continue_button",25360.9780740746,NA,NA,"",NA,"MetroDiagramFeedback",NA
"68",1601668501890,2,"02/10/2020 21:55:01","BLIND",6761511,NA,"complete",NA,"5f777afc5279d22b4717e970","computer","Desktop or Laptop","Windows 10","Chrome 85.0.4183.121","1920x1080","1920x979","DiagramFeedback","DiagramFeedback","DiagramFeedback",2,"1",2,"JoL1","One","response_button_text",25360.9780740746,NA,NA,"3",1,"MetroDiagramFeedback",NA
"69",1601668592475,2,"02/10/2020 21:56:32","BLIND",6761511,NA,"complete",NA,"5f777afc5279d22b4717e970","computer","Desktop or Laptop","Windows 10","Chrome 85.0.4183.121","1920x1080","1920x979","DiagramFeedback","DiagramFeedback","DiagramFeedback",2,"1",3,"Diagram","DiagBox1","response_text_area",25360.9780740746,NA,NA,"uITsl",NA,"MetroDiagramFeedback",NA
"7",1601667416337,2,"02/10/2020 21:36:56","BLIND",6761511,NA,"complete",NA,"5f777afc5279d22b4717e970","computer","Desktop or Laptop","Windows 10","Chrome 85.0.4183.121","1920x1080","1920x979","DiagramFeedback","DiagramFeedback","DiagramFeedback",1,"1",3,"Screen 3","DiagBox4","response_text_area",25360.9780740746,NA,NA,"3Oy",NA,"SportenDiagramFeedback",NA
"70",1601668592476,2,"02/10/2020 21:56:32","BLIND",6761511,NA,"complete",NA,"5f777afc5279d22b4717e970","computer","Desktop or Laptop","Windows 10","Chrome 85.0.4183.121","1920x1080","1920x979","DiagramFeedback","DiagramFeedback","DiagramFeedback",2,"1",3,"Diagram","DiagBox3","response_text_area",25360.9780740746,NA,NA,"L8uko3nUFz",NA,"MetroDiagramFeedback",NA
"71",1601668592477,2,"02/10/2020 21:56:32","BLIND",6761511,NA,"complete",NA,"5f777afc5279d22b4717e970","computer","Desktop or Laptop","Windows 10","Chrome 85.0.4183.121","1920x1080","1920x979","DiagramFeedback","DiagramFeedback","DiagramFeedback",2,"1",3,"Diagram","DiagBox4","response_text_area",25360.9780740746,NA,NA,"wZch",NA,"MetroDiagramFeedback",NA
"72",1601668592477,2,"02/10/2020 21:56:32","BLIND",6761511,NA,"complete",NA,"5f777afc5279d22b4717e970","computer","Desktop or Laptop","Windows 10","Chrome 85.0.4183.121","1920x1080","1920x979","DiagramFeedback","DiagramFeedback","DiagramFeedback",2,"1",3,"Diagram","DiagBox2","response_text_area",25360.9780740746,NA,NA,"?",NA,"MetroDiagramFeedback",NA
"73",1601668592477,2,"02/10/2020 21:56:32","BLIND",6761511,NA,"complete",NA,"5f777afc5279d22b4717e970","computer","Desktop or Laptop","Windows 10","Chrome 85.0.4183.121","1920x1080","1920x979","DiagramFeedback","DiagramFeedback","DiagramFeedback",2,"1",3,"Diagram","Zone3","continue_button",25360.9780740746,NA,NA,"",NA,"MetroDiagramFeedback",NA
"74",1601668615816,2,"02/10/2020 21:56:55","BLIND",6761511,NA,"complete",NA,"5f777afc5279d22b4717e970","computer","Desktop or Laptop","Windows 10","Chrome 85.0.4183.121","1920x1080","1920x979","DiagramFeedback","DiagramFeedback","DiagramFeedback",2,"1",4,"Feedback","Zone3","continue_button",25360.9780740746,NA,NA,"",NA,"MetroDiagramFeedback",NA
"75",1601668617624,2,"02/10/2020 21:56:57","BLIND",6761511,NA,"complete",NA,"5f777afc5279d22b4717e970","computer","Desktop or Laptop","Windows 10","Chrome 85.0.4183.121","1920x1080","1920x979","DiagramFeedback","DiagramFeedback","DiagramFeedback",2,"1",5,"JoL2","Three","response_button_text",25360.9780740746,NA,NA,"3",1,"MetroDiagramFeedback",NA
"76",1601668621496,2,"02/10/2020 21:57:01","BLIND",6761511,NA,"complete",NA,"5f777afc5279d22b4717e970","computer","Desktop or Laptop","Windows 10","Chrome 85.0.4183.121","1920x1080","1920x979","DiagramFeedback","DiagramFeedback","DiagramFeedback",2,"1",6,"InstructieToets","advancementZone","continue_button",25360.9780740746,NA,NA,"",NA,"MetroDiagramFeedback",NA
"77",1601668671264,2,"02/10/2020 21:57:51","BLIND",6761511,NA,"complete",NA,"5f777afc5279d22b4717e970","computer","Desktop or Laptop","Windows 10","Chrome 85.0.4183.121","1920x1080","1920x979","DiagramFeedback","DiagramFeedback","DiagramFeedback",2,"1",7,"Test","buttonA","response_text_area",25360.9780740746,NA,NA,"U9rjl",NA,"MetroDiagramFeedback",NA
"78",1601668671266,2,"02/10/2020 21:57:51","BLIND",6761511,NA,"complete",NA,"5f777afc5279d22b4717e970","computer","Desktop or Laptop","Windows 10","Chrome 85.0.4183.121","1920x1080","1920x979","DiagramFeedback","DiagramFeedback","DiagramFeedback",2,"1",7,"Test","buttonB","continue_button",25360.9780740746,NA,NA,"",NA,"MetroDiagramFeedback",NA
"79",1601668673480,2,"02/10/2020 21:57:53","BLIND",6761511,NA,"complete",NA,"5f777afc5279d22b4717e970","computer","Desktop or Laptop","Windows 10","Chrome 85.0.4183.121","1920x1080","1920x979","DiagramFeedback","DiagramFeedback","DiagramFeedback",11,"5",1,"Screen 1","advancementZone","continue_button",25360.9780740746,NA,NA,"",NA,"ReadyForNextTextScreen",NA
"8",1601667416338,2,"02/10/2020 21:36:56","BLIND",6761511,NA,"complete",NA,"5f777afc5279d22b4717e970","computer","Desktop or Laptop","Windows 10","Chrome 85.0.4183.121","1920x1080","1920x979","DiagramFeedback","DiagramFeedback","DiagramFeedback",1,"1",3,"Screen 3","Zone1","continue_button",25360.9780740746,NA,NA,"",NA,"SportenDiagramFeedback",NA
"80",1601668751431,2,"02/10/2020 21:59:11","BLIND",6761511,NA,"complete",NA,"5f777afc5279d22b4717e970","computer","Desktop or Laptop","Windows 10","Chrome 85.0.4183.121","1920x1080","1920x979","DiagramFeedback","DiagramFeedback","DiagramFeedback",6,"1",1,"Text","advancementZone","continue_button",25360.9780740746,NA,NA,"",NA,"SuezDiagramFeedback",NA
"81",1601668752711,2,"02/10/2020 21:59:12","BLIND",6761511,NA,"complete",NA,"5f777afc5279d22b4717e970","computer","Desktop or Laptop","Windows 10","Chrome 85.0.4183.121","1920x1080","1920x979","DiagramFeedback","DiagramFeedback","DiagramFeedback",6,"1",2,"JoL1","Three","response_button_text",25360.9780740746,NA,NA,"3",1,"SuezDiagramFeedback",NA
"82",1601668838800,2,"02/10/2020 22:00:38","BLIND",6761511,NA,"complete",NA,"5f777afc5279d22b4717e970","computer","Desktop or Laptop","Windows 10","Chrome 85.0.4183.121","1920x1080","1920x979","DiagramFeedback","DiagramFeedback","DiagramFeedback",6,"1",3,"Diagram","DiagBox2","response_text_area",25360.9780740746,NA,NA,"94UZW9",NA,"SuezDiagramFeedback",NA
"83",1601668838802,2,"02/10/2020 22:00:38","BLIND",6761511,NA,"complete",NA,"5f777afc5279d22b4717e970","computer","Desktop or Laptop","Windows 10","Chrome 85.0.4183.121","1920x1080","1920x979","DiagramFeedback","DiagramFeedback","DiagramFeedback",6,"1",3,"Diagram","DiagBox3","response_text_area",25360.9780740746,NA,NA,"Jgy47pS",NA,"SuezDiagramFeedback",NA
"84",1601668838802,2,"02/10/2020 22:00:38","BLIND",6761511,NA,"complete",NA,"5f777afc5279d22b4717e970","computer","Desktop or Laptop","Windows 10","Chrome 85.0.4183.121","1920x1080","1920x979","DiagramFeedback","DiagramFeedback","DiagramFeedback",6,"1",3,"Diagram","DiagBox4","response_text_area",25360.9780740746,NA,NA,"?",NA,"SuezDiagramFeedback",NA
"85",1601668838802,2,"02/10/2020 22:00:38","BLIND",6761511,NA,"complete",NA,"5f777afc5279d22b4717e970","computer","Desktop or Laptop","Windows 10","Chrome 85.0.4183.121","1920x1080","1920x979","DiagramFeedback","DiagramFeedback","DiagramFeedback",6,"1",3,"Diagram","DiagBox1","response_text_area",25360.9780740746,NA,NA,"2Rjeo",NA,"SuezDiagramFeedback",NA
"86",1601668838802,2,"02/10/2020 22:00:38","BLIND",6761511,NA,"complete",NA,"5f777afc5279d22b4717e970","computer","Desktop or Laptop","Windows 10","Chrome 85.0.4183.121","1920x1080","1920x979","DiagramFeedback","DiagramFeedback","DiagramFeedback",6,"1",3,"Diagram","Zone1","continue_button",25360.9780740746,NA,NA,"",NA,"SuezDiagramFeedback",NA
"87",1601668857807,2,"02/10/2020 22:00:57","BLIND",6761511,NA,"complete",NA,"5f777afc5279d22b4717e970","computer","Desktop or Laptop","Windows 10","Chrome 85.0.4183.121","1920x1080","1920x979","DiagramFeedback","DiagramFeedback","DiagramFeedback",6,"1",4,"Feedback","Zone1","continue_button",25360.9780740746,NA,NA,"",NA,"SuezDiagramFeedback",NA
"88",1601668858430,2,"02/10/2020 22:00:58","BLIND",6761511,NA,"complete",NA,"5f777afc5279d22b4717e970","computer","Desktop or Laptop","Windows 10","Chrome 85.0.4183.121","1920x1080","1920x979","DiagramFeedback","DiagramFeedback","DiagramFeedback",6,"1",5,"JoL2","Four","response_button_text",25360.9780740746,NA,NA,"3",1,"SuezDiagramFeedback",NA
"89",1601668859559,2,"02/10/2020 22:00:59","BLIND",6761511,NA,"complete",NA,"5f777afc5279d22b4717e970","computer","Desktop or Laptop","Windows 10","Chrome 85.0.4183.121","1920x1080","1920x979","DiagramFeedback","DiagramFeedback","DiagramFeedback",6,"1",6,"InstructieToets","advancementZone","continue_button",25360.9780740746,NA,NA,"",NA,"SuezDiagramFeedback",NA
"9",1601667428916,2,"02/10/2020 21:37:08","BLIND",6761511,NA,"complete",NA,"5f777afc5279d22b4717e970","computer","Desktop or Laptop","Windows 10","Chrome 85.0.4183.121","1920x1080","1920x979","DiagramFeedback","DiagramFeedback","DiagramFeedback",1,"1",4,"Feedback","Zone1","continue_button",25360.9780740746,NA,NA,"",NA,"SportenDiagramFeedback",NA
"90",1601668933909,2,"02/10/2020 22:02:13","BLIND",6761511,NA,"complete",NA,"5f777afc5279d22b4717e970","computer","Desktop or Laptop","Windows 10","Chrome 85.0.4183.121","1920x1080","1920x979","DiagramFeedback","DiagramFeedback","DiagramFeedback",6,"1",7,"Test","buttonA","response_text_area",25360.9780740746,NA,NA,"ogqsZkzG",NA,"SuezDiagramFeedback",NA
"91",1601668933910,2,"02/10/2020 22:02:13","BLIND",6761511,NA,"complete",NA,"5f777afc5279d22b4717e970","computer","Desktop or Laptop","Windows 10","Chrome 85.0.4183.121","1920x1080","1920x979","DiagramFeedback","DiagramFeedback","DiagramFeedback",6,"1",7,"Test","buttonB","continue_button",25360.9780740746,NA,NA,"",NA,"SuezDiagramFeedback",NA
"92",1601668933914,2,"02/10/2020 22:02:13","BLIND",6761511,NA,"complete",NA,"5f777afc5279d22b4717e970","computer","Desktop or Laptop","Windows 10","Chrome 85.0.4183.121","1920x1080","1920x979","DiagramFeedback","DiagramFeedback","",NA,"END TASK",NA,"","","",1659851,NA,NA,"",NA,"",NA
"1",1601663526892,2,"02/10/2020 20:32:06","BLIND",9975359,NA,"complete",NA,"5f77712d1f70372b15f5612f","computer","Desktop or Laptop","Windows 10","Chrome 85.0.4183.121","1920x1080","1920x937","DiagramFeedback","DiagramFeedback","",NA,"BEGIN TASK",NA,"","","",NA,NA,NA,"",NA,"",NA
"10",1601663698321,2,"02/10/2020 20:34:58","BLIND",9975359,NA,"complete",NA,"5f77712d1f70372b15f5612f","computer","Desktop or Laptop","Windows 10","Chrome 85.0.4183.121","1920x1080","1920x937","DiagramFeedback","DiagramFeedback","DiagramFeedback",1,"1",5,"JoL2","Four","response_button_text",25360.9780740746,NA,NA,"3",1,"SportenDiagramFeedback",NA
"11",1601663701521,2,"02/10/2020 20:35:01","BLIND",9975359,NA,"complete",NA,"5f77712d1f70372b15f5612f","computer","Desktop or Laptop","Windows 10","Chrome 85.0.4183.121","1920x1080","1920x937","DiagramFeedback","DiagramFeedback","DiagramFeedback",1,"1",6,"InstructieToets","advancementZone","continue_button",25360.9780740746,NA,NA,"",NA,"SportenDiagramFeedback",NA
"12",1601663760434,2,"02/10/2020 20:36:00","BLIND",9975359,NA,"complete",NA,"5f77712d1f70372b15f5612f","computer","Desktop or Laptop","Windows 10","Chrome 85.0.4183.121","1920x1080","1920x937","DiagramFeedback","DiagramFeedback","DiagramFeedback",1,"1",7,"Test","buttonA","response_text_area",25360.9780740746,NA,NA,"aIG",NA,"SportenDiagramFeedback",NA
"13",1601663760436,2,"02/10/2020 20:36:00","BLIND",9975359,NA,"complete",NA,"5f77712d1f70372b15f5612f","computer","Desktop or Laptop","Windows 10","Chrome 85.0.4183.121","1920x1080","1920x937","DiagramFeedback","DiagramFeedback","DiagramFeedback",1,"1",7,"Test","buttonB","continue_button",25360.9780740746,NA,NA,"",NA,"SportenDiagramFeedback",NA
"14",1601663762984,2,"02/10/2020 20:36:02","BLIND",9975359,NA,"complete",NA,"5f77712d1f70372b15f5612f","computer","Desktop or Laptop","Windows 10","Chrome 85.0.4183.121","1920x1080","1920x937","DiagramFeedback","DiagramFeedback","DiagramFeedback",1,"1",8,"Klaar4Experiment","advancementZone","continue_button",25360.9780740746,NA,NA,"",NA,"SportenDiagramFeedback",NA
"15",1601663813168,2,"02/10/2020 20:36:53","BLIND",9975359,NA,"complete",NA,"5f77712d1f70372b15f5612f","computer","Desktop or Laptop","Windows 10","Chrome 85.0.4183.121","1920x1080","1920x937","DiagramFeedback","DiagramFeedback","DiagramFeedback",6,"1",1,"Text","advancementZone","continue_button",25360.9780740746,NA,NA,"",NA,"SuezDiagramFeedback",NA
"16",1601663819594,2,"02/10/2020 20:36:59","BLIND",9975359,NA,"complete",NA,"5f77712d1f70372b15f5612f","computer","Desktop or Laptop","Windows 10","Chrome 85.0.4183.121","1920x1080","1920x937","DiagramFeedback","DiagramFeedback","DiagramFeedback",6,"1",2,"JoL1","Two","response_button_text",25360.9780740746,NA,NA,"3",1,"SuezDiagramFeedback",NA
"17",1601663870291,2,"02/10/2020 20:37:50","BLIND",9975359,NA,"complete",NA,"5f77712d1f70372b15f5612f","computer","Desktop or Laptop","Windows 10","Chrome 85.0.4183.121","1920x1080","1920x937","DiagramFeedback","DiagramFeedback","DiagramFeedback",6,"1",3,"Diagram","DiagBox2","response_text_area",25360.9780740746,NA,NA,"iUIKGx8OA",NA,"SuezDiagramFeedback",NA
"18",1601663870293,2,"02/10/2020 20:37:50","BLIND",9975359,NA,"complete",NA,"5f77712d1f70372b15f5612f","computer","Desktop or Laptop","Windows 10","Chrome 85.0.4183.121","1920x1080","1920x937","DiagramFeedback","DiagramFeedback","DiagramFeedback",6,"1",3,"Diagram","DiagBox3","response_text_area",25360.9780740746,NA,NA,"4Yd",NA,"SuezDiagramFeedback",NA
"19",1601663870293,2,"02/10/2020 20:37:50","BLIND",9975359,NA,"complete",NA,"5f77712d1f70372b15f5612f","computer","Desktop or Laptop","Windows 10","Chrome 85.0.4183.121","1920x1080","1920x937","DiagramFeedback","DiagramFeedback","DiagramFeedback",6,"1",3,"Diagram","DiagBox4","response_text_area",25360.9780740746,NA,NA,"kyu",NA,"SuezDiagramFeedback",NA
"2",1601663571596,2,"02/10/2020 20:32:51","BLIND",9975359,NA,"complete",NA,"5f77712d1f70372b15f5612f","computer","Desktop or Laptop","Windows 10","Chrome 85.0.4183.121","1920x1080","1920x937","DiagramFeedback","DiagramFeedback","DiagramFeedback",1,"1",1,"Text","advancementZone","continue_button",25360.9780740746,NA,NA,"",NA,"SportenDiagramFeedback",NA
"20",1601663870294,2,"02/10/2020 20:37:50","BLIND",9975359,NA,"complete",NA,"5f77712d1f70372b15f5612f","computer","Desktop or Laptop","Windows 10","Chrome 85.0.4183.121","1920x1080","1920x937","DiagramFeedback","DiagramFeedback","DiagramFeedback",6,"1",3,"Diagram","DiagBox1","response_text_area",25360.9780740746,NA,NA,"0xMcpo",NA,"SuezDiagramFeedback",NA
"21",1601663870294,2,"02/10/2020 20:37:50","BLIND",9975359,NA,"complete",NA,"5f77712d1f70372b15f5612f","computer","Desktop or Laptop","Windows 10","Chrome 85.0.4183.121","1920x1080","1920x937","DiagramFeedback","DiagramFeedback","DiagramFeedback",6,"1",3,"Diagram","Zone1","continue_button",25360.9780740746,NA,NA,"",NA,"SuezDiagramFeedback",NA
"22",1601663884839,2,"02/10/2020 20:38:04","BLIND",9975359,NA,"complete",NA,"5f77712d1f70372b15f5612f","computer","Desktop or Laptop","Windows 10","Chrome 85.0.4183.121","1920x1080","1920x937","DiagramFeedback","DiagramFeedback","DiagramFeedback",6,"1",4,"Feedback","Zone1","continue_button",25360.9780740746,NA,NA,"",NA,"SuezDiagramFeedback",NA
"23",1601663885999,2,"02/10/2020 20:38:05","BLIND",9975359,NA,"complete",NA,"5f77712d1f70372b15f5612f","computer","Desktop or Laptop","Windows 10","Chrome 85.0.4183.121","1920x1080","1920x937","DiagramFeedback","DiagramFeedback","DiagramFeedback",6,"1",5,"JoL2","Three","response_button_text",25360.9780740746,NA,NA,"3",1,"SuezDiagramFeedback",NA
"24",1601663886927,2,"02/10/2020 20:38:06","BLIND",9975359,NA,"complete",NA,"5f77712d1f70372b15f5612f","computer","Desktop or Laptop","Windows 10","Chrome 85.0.4183.121","1920x1080","1920x937","DiagramFeedback","DiagramFeedback","DiagramFeedback",6,"1",6,"InstructieToets","advancementZone","continue_button",25360.9780740746,NA,NA,"",NA,"SuezDiagramFeedback",NA
"25",1601663959432,2,"02/10/2020 20:39:19","BLIND",9975359,NA,"complete",NA,"5f77712d1f70372b15f5612f","computer","Desktop or Laptop","Windows 10","Chrome 85.0.4183.121","1920x1080","1920x937","DiagramFeedback","DiagramFeedback","DiagramFeedback",6,"1",7,"Test","buttonA","response_text_area",25360.9780740746,NA,NA,"ICba23UQ",NA,"SuezDiagramFeedback",NA
"26",1601663959434,2,"02/10/2020 20:39:19","BLIND",9975359,NA,"complete",NA,"5f77712d1f70372b15f5612f","computer","Desktop or Laptop","Windows 10","Chrome 85.0.4183.121","1920x1080","1920x937","DiagramFeedback","DiagramFeedback","DiagramFeedback",6,"1",7,"Test","buttonB","continue_button",25360.9780740746,NA,NA,"",NA,"SuezDiagramFeedback",NA
"27",1601663961999,2,"02/10/2020 20:39:21","BLIND",9975359,NA,"complete",NA,"5f77712d1f70372b15f5612f","computer","Desktop or Laptop","Windows 10","Chrome 85.0.4183.121","1920x1080","1920x937","DiagramFeedback","DiagramFeedback","DiagramFeedback",3,"1",1,"Screen 1","advancementZone","continue_button",25360.9780740746,NA,NA,"",NA,"ReadyForNextTextScreen",NA
"28",1601664014982,2,"02/10/2020 20:40:14","BLIND",9975359,NA,"complete",NA,"5f77712d1f70372b15f5612f","computer","Desktop or Laptop","Windows 10","Chrome 85.0.4183.121","1920x1080","1920x937","DiagramFeedback","DiagramFeedback","DiagramFeedback",2,"1",1,"Text","advancementZone","continue_button",25360.9780740746,NA,NA,"",NA,"MetroDiagramFeedback",NA
"29",1601664018375,2,"02/10/2020 20:40:18","BLIND",9975359,NA,"complete",NA,"5f77712d1f70372b15f5612f","computer","Desktop or Laptop","Windows 10","Chrome 85.0.4183.121","1920x1080","1920x937","DiagramFeedback","DiagramFeedback","DiagramFeedback",2,"1",2,"JoL1","Three","response_button_text",25360.9780740746,NA,NA,"3",1,"MetroDiagramFeedback",NA
"3",1601663574723,2,"02/10/2020 20:32:54","BLIND",9975359,NA,"complete",NA,"5f77712d1f70372b15f5612f","computer","Desktop or Laptop","Windows 10","Chrome 85.0.4183.121","1920x1080","1920x937","DiagramFeedback","DiagramFeedback","DiagramFeedback",1,"1",2,"JoL1","Four","response_button_text",25360.9780740746,NA,NA,"3",1,"SportenDiagramFeedback",NA
"30",1601664075930,2,"02/10/2020 20:41:15","BLIND",9975359,NA,"complete",NA,"5f77712d1f70372b15f5612f","computer","Desktop or Laptop","Windows 10","Chrome 85.0.4183.121","1920x1080","1920x937","DiagramFeedback","DiagramFeedback","DiagramFeedback",2,"1",3,"Diagram","DiagBox1","response_text_area",25360.9780740746,NA,NA,"BA",NA,"MetroDiagramFeedback",NA
"31",1601664075932,2,"02/10/2020 20:41:15","BLIND",9975359,NA,"complete",NA,"5f77712d1f70372b15f5612f","computer","Desktop or Laptop","Windows 10","Chrome 85.0.4183.121","1920x1080","1920x937","DiagramFeedback","DiagramFeedback","DiagramFeedback",2,"1",3,"Diagram","DiagBox3","response_text_area",25360.9780740746,NA,NA,"LxPwLiKrjp",NA,"MetroDiagramFeedback",NA
"32",1601664075933,2,"02/10/2020 20:41:15","BLIND",9975359,NA,"complete",NA,"5f77712d1f70372b15f5612f","computer","Desktop or Laptop","Windows 10","Chrome 85.0.4183.121","1920x1080","1920x937","DiagramFeedback","DiagramFeedback","DiagramFeedback",2,"1",3,"Diagram","DiagBox4","response_text_area",25360.9780740746,NA,NA,"3vJp",NA,"MetroDiagramFeedback",NA
"33",1601664075933,2,"02/10/2020 20:41:15","BLIND",9975359,NA,"complete",NA,"5f77712d1f70372b15f5612f","computer","Desktop or Laptop","Windows 10","Chrome 85.0.4183.121","1920x1080","1920x937","DiagramFeedback","DiagramFeedback","DiagramFeedback",2,"1",3,"Diagram","DiagBox2","response_text_area",25360.9780740746,NA,NA,"wu",NA,"MetroDiagramFeedback",NA
"34",1601664075933,2,"02/10/2020 20:41:15","BLIND",9975359,NA,"complete",NA,"5f77712d1f70372b15f5612f","computer","Desktop or Laptop","Windows 10","Chrome 85.0.4183.121","1920x1080","1920x937","DiagramFeedback","DiagramFeedback","DiagramFeedback",2,"1",3,"Diagram","Zone3","continue_button",25360.9780740746,NA,NA,"",NA,"MetroDiagramFeedback",NA
"35",1601664081854,2,"02/10/2020 20:41:21","BLIND",9975359,NA,"complete",NA,"5f77712d1f70372b15f5612f","computer","Desktop or Laptop","Windows 10","Chrome 85.0.4183.121","1920x1080","1920x937","DiagramFeedback","DiagramFeedback","DiagramFeedback",2,"1",4,"Feedback","Zone3","continue_button",25360.9780740746,NA,NA,"",NA,"MetroDiagramFeedback",NA
"36",1601664083558,2,"02/10/2020 20:41:23","BLIND",9975359,NA,"complete",NA,"5f77712d1f70372b15f5612f","computer","Desktop or Laptop","Windows 10","Chrome 85.0.4183.121","1920x1080","1920x937","DiagramFeedback","DiagramFeedback","DiagramFeedback",2,"1",5,"JoL2","Four","response_button_text",25360.9780740746,NA,NA,"3",1,"MetroDiagramFeedback",NA
"37",1601664084965,2,"02/10/2020 20:41:24","BLIND",9975359,NA,"complete",NA,"5f77712d1f70372b15f5612f","computer","Desktop or Laptop","Windows 10","Chrome 85.0.4183.121","1920x1080","1920x937","DiagramFeedback","DiagramFeedback","DiagramFeedback",2,"1",6,"InstructieToets","advancementZone","continue_button",25360.9780740746,NA,NA,"",NA,"MetroDiagramFeedback",NA
"38",1601664166126,2,"02/10/2020 20:42:46","BLIND",9975359,NA,"complete",NA,"5f77712d1f70372b15f5612f","computer","Desktop or Laptop","Windows 10","Chrome 85.0.4183.121","1920x1080","1920x937","DiagramFeedback","DiagramFeedback","DiagramFeedback",2,"1",7,"Test","buttonA","response_text_area",25360.9780740746,NA,NA,"OaUoyY5",NA,"MetroDiagramFeedback",NA
"39",1601664166127,2,"02/10/2020 20:42:46","BLIND",9975359,NA,"complete",NA,"5f77712d1f70372b15f5612f","computer","Desktop or Laptop","Windows 10","Chrome 85.0.4183.121","1920x1080","1920x937","DiagramFeedback","DiagramFeedback","DiagramFeedback",2,"1",7,"Test","buttonB","continue_button",25360.9780740746,NA,NA,"",NA,"MetroDiagramFeedback",NA
"4",1601663677358,2,"02/10/2020 20:34:37","BLIND",9975359,NA,"complete",NA,"5f77712d1f70372b15f5612f","computer","Desktop or Laptop","Windows 10","Chrome 85.0.4183.121","1920x1080","1920x937","DiagramFeedback","DiagramFeedback","DiagramFeedback",1,"1",3,"Screen 3","DiagBox1","response_text_area",25360.9780740746,NA,NA,"lyPv6gc",NA,"SportenDiagramFeedback",NA
"40",1601664167285,2,"02/10/2020 20:42:47","BLIND",9975359,NA,"complete",NA,"5f77712d1f70372b15f5612f","computer","Desktop or Laptop","Windows 10","Chrome 85.0.4183.121","1920x1080","1920x937","DiagramFeedback","DiagramFeedback","DiagramFeedback",5,"2",1,"Screen 1","advancementZone","continue_button",25360.9780740746,NA,NA,"",NA,"ReadyForNextTextScreen",NA
"41",1601664226405,2,"02/10/2020 20:43:46","BLIND",9975359,NA,"complete",NA,"5f77712d1f70372b15f5612f","computer","Desktop or Laptop","Windows 10","Chrome 85.0.4183.121","1920x1080","1920x937","DiagramFeedback","DiagramFeedback","DiagramFeedback",8,"1",1,"Text","advancementZone","continue_button",25360.9780740746,NA,NA,"",NA,"BotoxDiagramFeedback",NA
"42",1601664227844,2,"02/10/2020 20:43:47","BLIND",9975359,NA,"complete",NA,"5f77712d1f70372b15f5612f","computer","Desktop or Laptop","Windows 10","Chrome 85.0.4183.121","1920x1080","1920x937","DiagramFeedback","DiagramFeedback","DiagramFeedback",8,"1",2,"JoL1","Four","response_button_text",25360.9780740746,NA,NA,"3",1,"BotoxDiagramFeedback",NA
"43",1601664291446,2,"02/10/2020 20:44:51","BLIND",9975359,NA,"complete",NA,"5f77712d1f70372b15f5612f","computer","Desktop or Laptop","Windows 10","Chrome 85.0.4183.121","1920x1080","1920x937","DiagramFeedback","DiagramFeedback","DiagramFeedback",8,"1",3,"Diagram","DiagBox3","response_text_area",25360.9780740746,NA,NA,"bbN3ncr",NA,"BotoxDiagramFeedback",NA
"44",1601664291449,2,"02/10/2020 20:44:51","BLIND",9975359,NA,"complete",NA,"5f77712d1f70372b15f5612f","computer","Desktop or Laptop","Windows 10","Chrome 85.0.4183.121","1920x1080","1920x937","DiagramFeedback","DiagramFeedback","DiagramFeedback",8,"1",3,"Diagram","DiagBox4","response_text_area",25360.9780740746,NA,NA,"DB1WV",NA,"BotoxDiagramFeedback",NA
"45",1601664291449,2,"02/10/2020 20:44:51","BLIND",9975359,NA,"complete",NA,"5f77712d1f70372b15f5612f","computer","Desktop or Laptop","Windows 10","Chrome 85.0.4183.121","1920x1080","1920x937","DiagramFeedback","DiagramFeedback","DiagramFeedback",8,"1",3,"Diagram","DiagBox2","response_text_area",25360.9780740746,NA,NA,"bn93zPVpx5",NA,"BotoxDiagramFeedback",NA
"46",1601664291449,2,"02/10/2020 20:44:51","BLIND",9975359,NA,"complete",NA,"5f77712d1f70372b15f5612f","computer","Desktop or Laptop","Windows 10","Chrome 85.0.4183.121","1920x1080","1920x937","DiagramFeedback","DiagramFeedback","DiagramFeedback",8,"1",3,"Diagram","DiagBox1","response_text_area",25360.9780740746,NA,NA,"cHZOYCAK",NA,"BotoxDiagramFeedback",NA
"47",1601664291449,2,"02/10/2020 20:44:51","BLIND",9975359,NA,"complete",NA,"5f77712d1f70372b15f5612f","computer","Desktop or Laptop","Windows 10","Chrome 85.0.4183.121","1920x1080","1920x937","DiagramFeedback","DiagramFeedback","DiagramFeedback",8,"1",3,"Diagram","Zone1","continue_button",25360.9780740746,NA,NA,"",NA,"BotoxDiagramFeedback",NA
"48",1601664308435,2,"02/10/2020 20:45:08","BLIND",9975359,NA,"complete",NA,"5f77712d1f70372b15f5612f","computer","Desktop or Laptop","Windows 10","Chrome 85.0.4183.121","1920x1080","1920x937","DiagramFeedback","DiagramFeedback","DiagramFeedback",8,"1",4,"Feedback","Zone1","continue_button",25360.9780740746,NA,NA,"",NA,"BotoxDiagramFeedback",NA
"49",1601664314948,2,"02/10/2020 20:45:14","BLIND",9975359,NA,"complete",NA,"5f77712d1f70372b15f5612f","computer","Desktop or Laptop","Windows 10","Chrome 85.0.4183.121","1920x1080","1920x937","DiagramFeedback","DiagramFeedback","DiagramFeedback",8,"1",5,"JoL2","Three","response_button_text",25360.9780740746,NA,NA,"3",1,"BotoxDiagramFeedback",NA
"5",1601663677360,2,"02/10/2020 20:34:37","BLIND",9975359,NA,"complete",NA,"5f77712d1f70372b15f5612f","computer","Desktop or Laptop","Windows 10","Chrome 85.0.4183.121","1920x1080","1920x937","DiagramFeedback","DiagramFeedback","DiagramFeedback",1,"1",3,"Screen 3","DiagBox2","response_text_area",25360.9780740746,NA,NA,"Li3Yyfn",NA,"SportenDiagramFeedback",NA
"50",1601664317067,2,"02/10/2020 20:45:17","BLIND",9975359,NA,"complete",NA,"5f77712d1f70372b15f5612f","computer","Desktop or Laptop","Windows 10","Chrome 85.0.4183.121","1920x1080","1920x937","DiagramFeedback","DiagramFeedback","DiagramFeedback",8,"1",6,"InstructieToets","advancementZone","continue_button",25360.9780740746,NA,NA,"",NA,"BotoxDiagramFeedback",NA
"51",1601664417179,2,"02/10/2020 20:46:57","BLIND",9975359,NA,"complete",NA,"5f77712d1f70372b15f5612f","computer","Desktop or Laptop","Windows 10","Chrome 85.0.4183.121","1920x1080","1920x937","DiagramFeedback","DiagramFeedback","DiagramFeedback",8,"1",7,"Test","buttonA","response_text_area",25360.9780740746,NA,NA,"H50C3Wycb",NA,"BotoxDiagramFeedback",NA
"52",1601664417181,2,"02/10/2020 20:46:57","BLIND",9975359,NA,"complete",NA,"5f77712d1f70372b15f5612f","computer","Desktop or Laptop","Windows 10","Chrome 85.0.4183.121","1920x1080","1920x937","DiagramFeedback","DiagramFeedback","DiagramFeedback",8,"1",7,"Test","buttonB","continue_button",25360.9780740746,NA,NA,"",NA,"BotoxDiagramFeedback",NA
"53",1601664418595,2,"02/10/2020 20:46:58","BLIND",9975359,NA,"complete",NA,"5f77712d1f70372b15f5612f","computer","Desktop or Laptop","Windows 10","Chrome 85.0.4183.121","1920x1080","1920x937","DiagramFeedback","DiagramFeedback","DiagramFeedback",7,"3",1,"Screen 1","advancementZone","continue_button",25360.9780740746,NA,NA,"",NA,"ReadyForNextTextScreen",NA
"54",1601664463746,2,"02/10/2020 20:47:43","BLIND",9975359,NA,"complete",NA,"5f77712d1f70372b15f5612f","computer","Desktop or Laptop","Windows 10","Chrome 85.0.4183.121","1920x1080","1920x937","DiagramFeedback","DiagramFeedback","DiagramFeedback",4,"1",1,"Text","advancementZone","continue_button",25360.9780740746,NA,NA,"",NA,"BetonDiagramFeedback",NA
"55",1601664465354,2,"02/10/2020 20:47:45","BLIND",9975359,NA,"complete",NA,"5f77712d1f70372b15f5612f","computer","Desktop or Laptop","Windows 10","Chrome 85.0.4183.121","1920x1080","1920x937","DiagramFeedback","DiagramFeedback","DiagramFeedback",4,"1",2,"JoL1","Three","response_button_text",25360.9780740746,NA,NA,"3",1,"BetonDiagramFeedback",NA
"56",1601664527316,2,"02/10/2020 20:48:47","BLIND",9975359,NA,"complete",NA,"5f77712d1f70372b15f5612f","computer","Desktop or Laptop","Windows 10","Chrome 85.0.4183.121","1920x1080","1920x937","DiagramFeedback","DiagramFeedback","DiagramFeedback",4,"1",3,"Diagram","DiagBox2","response_text_area",25360.9780740746,NA,NA,"9NB",NA,"BetonDiagramFeedback",NA
"57",1601664527318,2,"02/10/2020 20:48:47","BLIND",9975359,NA,"complete",NA,"5f77712d1f70372b15f5612f","computer","Desktop or Laptop","Windows 10","Chrome 85.0.4183.121","1920x1080","1920x937","DiagramFeedback","DiagramFeedback","DiagramFeedback",4,"1",3,"Diagram","DiagBox3","response_text_area",25360.9780740746,NA,NA,"d5gfG82",NA,"BetonDiagramFeedback",NA
"58",1601664527318,2,"02/10/2020 20:48:47","BLIND",9975359,NA,"complete",NA,"5f77712d1f70372b15f5612f","computer","Desktop or Laptop","Windows 10","Chrome 85.0.4183.121","1920x1080","1920x937","DiagramFeedback","DiagramFeedback","DiagramFeedback",4,"1",3,"Diagram","DiagBox4","response_text_area",25360.9780740746,NA,NA,"ROkTvtm0",NA,"BetonDiagramFeedback",NA
"59",1601664527318,2,"02/10/2020 20:48:47","BLIND",9975359,NA,"complete",NA,"5f77712d1f70372b15f5612f","computer","Desktop or Laptop","Windows 10","Chrome 85.0.4183.121","1920x1080","1920x937","DiagramFeedback","DiagramFeedback","DiagramFeedback",4,"1",3,"Diagram","DiagBox1","response_text_area",25360.9780740746,NA,NA,"Jg",NA,"BetonDiagramFeedback",NA
"6",1601663677361,2,"02/10/2020 20:34:37","BLIND",9975359,NA,"complete",NA,"5f77712d1f70372b15f5612f","computer","Desktop or Laptop","Windows 10","Chrome 85.0.4183.121","1920x1080","1920x937","DiagramFeedback","DiagramFeedback","DiagramFeedback",1,"1",3,"Screen 3","DiagBox3","response_text_area",25360.9780740746,NA,NA,"qfJ6dgHF",NA,"SportenDiagramFeedback",NA
"60",1601664527318,2,"02/10/2020 20:48:47","BLIND",9975359,NA,"complete",NA,"5f77712d1f70372b15f5612f","computer","Desktop or Laptop","Windows 10","Chrome 85.0.4183.121","1920x1080","1920x937","DiagramFeedback","DiagramFeedback","DiagramFeedback",4,"1",3,"Diagram","Zone1","continue_button",25360.9780740746,NA,NA,"",NA,"BetonDiagramFeedback",NA
"61",1601664537682,2,"02/10/2020 20:48:57","BLIND",9975359,NA,"complete",NA,"5f77712d1f70372b15f5612f","computer","Desktop or Laptop","Windows 10","Chrome 85.0.4183.121","1920x1080","1920x937","DiagramFeedback","DiagramFeedback","DiagramFeedback",4,"1",4,"Feedback","Zone1","continue_button",25360.9780740746,NA,NA,"",NA,"BetonDiagramFeedback",NA
"62",1601664541538,2,"02/10/2020 20:49:01","BLIND",9975359,NA,"complete",NA,"5f77712d1f70372b15f5612f","computer","Desktop or Laptop","Windows 10","Chrome 85.0.4183.121","1920x1080","1920x937","DiagramFeedback","DiagramFeedback","DiagramFeedback",4,"1",5,"JoL2","Two","response_button_text",25360.9780740746,NA,NA,"3",1,"BetonDiagramFeedback",NA
"63",1601664542594,2,"02/10/2020 20:49:02","BLIND",9975359,NA,"complete",NA,"5f77712d1f70372b15f5612f","computer","Desktop or Laptop","Windows 10","Chrome 85.0.4183.121","1920x1080","1920x937","DiagramFeedback","DiagramFeedback","DiagramFeedback",4,"1",6,"InstructieToets","advancementZone","continue_button",25360.9780740746,NA,NA,"",NA,"BetonDiagramFeedback",NA
"64",1601664590298,2,"02/10/2020 20:49:50","BLIND",9975359,NA,"complete",NA,"5f77712d1f70372b15f5612f","computer","Desktop or Laptop","Windows 10","Chrome 85.0.4183.121","1920x1080","1920x937","DiagramFeedback","DiagramFeedback","DiagramFeedback",4,"1",7,"Test","buttonA","response_text_area",25360.9780740746,NA,NA,"FuI",NA,"BetonDiagramFeedback",NA
"65",1601664590300,2,"02/10/2020 20:49:50","BLIND",9975359,NA,"complete",NA,"5f77712d1f70372b15f5612f","computer","Desktop or Laptop","Windows 10","Chrome 85.0.4183.121","1920x1080","1920x937","DiagramFeedback","DiagramFeedback","DiagramFeedback",4,"1",7,"Test","buttonB","continue_button",25360.9780740746,NA,NA,"",NA,"BetonDiagramFeedback",NA
"66",1601664591241,2,"02/10/2020 20:49:51","BLIND",9975359,NA,"complete",NA,"5f77712d1f70372b15f5612f","computer","Desktop or Laptop","Windows 10","Chrome 85.0.4183.121","1920x1080","1920x937","DiagramFeedback","DiagramFeedback","DiagramFeedback",9,"4",1,"Screen 1","advancementZone","continue_button",25360.9780740746,NA,NA,"",NA,"ReadyForNextTextScreen",NA
"67",1601664672569,2,"02/10/2020 20:51:12","BLIND",9975359,NA,"complete",NA,"5f77712d1f70372b15f5612f","computer","Desktop or Laptop","Windows 10","Chrome 85.0.4183.121","1920x1080","1920x937","DiagramFeedback","DiagramFeedback","DiagramFeedback",12,"1",1,"Text","advancementZone","continue_button",25360.9780740746,NA,NA,"",NA,"GeldDiagramFeedback",NA
"68",1601664674025,2,"02/10/2020 20:51:14","BLIND",9975359,NA,"complete",NA,"5f77712d1f70372b15f5612f","computer","Desktop or Laptop","Windows 10","Chrome 85.0.4183.121","1920x1080","1920x937","DiagramFeedback","DiagramFeedback","DiagramFeedback",12,"1",2,"JoL1","Three","response_button_text",25360.9780740746,NA,NA,"3",1,"GeldDiagramFeedback",NA
"69",1601664750825,2,"02/10/2020 20:52:30","BLIND",9975359,NA,"complete",NA,"5f77712d1f70372b15f5612f","computer","Desktop or Laptop","Windows 10","Chrome 85.0.4183.121","1920x1080","1920x937","DiagramFeedback","DiagramFeedback","DiagramFeedback",12,"1",3,"Diagram","DiagBox2","response_text_area",25360.9780740746,NA,NA,"v8w",NA,"GeldDiagramFeedback",NA
"7",1601663677361,2,"02/10/2020 20:34:37","BLIND",9975359,NA,"complete",NA,"5f77712d1f70372b15f5612f","computer","Desktop or Laptop","Windows 10","Chrome 85.0.4183.121","1920x1080","1920x937","DiagramFeedback","DiagramFeedback","DiagramFeedback",1,"1",3,"Screen 3","DiagBox4","response_text_area",25360.9780740746,NA,NA,"XgA7",NA,"SportenDiagramFeedback",NA
"70",1601664750828,2,"02/10/2020 20:52:30","BLIND",9975359,NA,"complete",NA,"5f77712d1f70372b15f5612f","computer","Desktop or Laptop","Windows 10","Chrome 85.0.4183.121","1920x1080","1920x937","DiagramFeedback","DiagramFeedback","DiagramFeedback",12,"1",3,"Diagram","DiagBox3","response_text_area",25360.9780740746,NA,NA,"dbzaRL4Ghg",NA,"GeldDiagramFeedback",NA
"71",1601664750829,2,"02/10/2020 20:52:30","BLIND",9975359,NA,"complete",NA,"5f77712d1f70372b15f5612f","computer","Desktop or Laptop","Windows 10","Chrome 85.0.4183.121","1920x1080","1920x937","DiagramFeedback","DiagramFeedback","DiagramFeedback",12,"1",3,"Diagram","DiagBox4","response_text_area",25360.9780740746,NA,NA,"?",NA,"GeldDiagramFeedback",NA
"72",1601664750829,2,"02/10/2020 20:52:30","BLIND",9975359,NA,"complete",NA,"5f77712d1f70372b15f5612f","computer","Desktop or Laptop","Windows 10","Chrome 85.0.4183.121","1920x1080","1920x937","DiagramFeedback","DiagramFeedback","DiagramFeedback",12,"1",3,"Diagram","DiagBox1","response_text_area",25360.9780740746,NA,NA,"bOG26",NA,"GeldDiagramFeedback",NA
"73",1601664750829,2,"02/10/2020 20:52:30","BLIND",9975359,NA,"complete",NA,"5f77712d1f70372b15f5612f","computer","Desktop or Laptop","Windows 10","Chrome 85.0.4183.121","1920x1080","1920x937","DiagramFeedback","DiagramFeedback","DiagramFeedback",12,"1",3,"Diagram","Zone1","continue_button",25360.9780740746,NA,NA,"",NA,"GeldDiagramFeedback",NA
"74",1601664762872,2,"02/10/2020 20:52:42","BLIND",9975359,NA,"complete",NA,"5f77712d1f70372b15f5612f","computer","Desktop or Laptop","Windows 10","Chrome 85.0.4183.121","1920x1080","1920x937","DiagramFeedback","DiagramFeedback","DiagramFeedback",12,"1",4,"Feedback","Zone1","continue_button",25360.9780740746,NA,NA,"",NA,"GeldDiagramFeedback",NA
"75",1601664764640,2,"02/10/2020 20:52:44","BLIND",9975359,NA,"complete",NA,"5f77712d1f70372b15f5612f","computer","Desktop or Laptop","Windows 10","Chrome 85.0.4183.121","1920x1080","1920x937","DiagramFeedback","DiagramFeedback","DiagramFeedback",12,"1",5,"JoL2","Three","response_button_text",25360.9780740746,NA,NA,"3",1,"GeldDiagramFeedback",NA
"76",1601664765600,2,"02/10/2020 20:52:45","BLIND",9975359,NA,"complete",NA,"5f77712d1f70372b15f5612f","computer","Desktop or Laptop","Windows 10","Chrome 85.0.4183.121","1920x1080","1920x937","DiagramFeedback","DiagramFeedback","DiagramFeedback",12,"1",6,"InstructieToets","advancementZone","continue_button",25360.9780740746,NA,NA,"",NA,"GeldDiagramFeedback",NA
"77",1601664830896,2,"02/10/2020 20:53:50","BLIND",9975359,NA,"complete",NA,"5f77712d1f70372b15f5612f","computer","Desktop or Laptop","Windows 10","Chrome 85.0.4183.121","1920x1080","1920x937","DiagramFeedback","DiagramFeedback","DiagramFeedback",12,"1",7,"Test","buttonA","response_text_area",25360.9780740746,NA,NA,"rAf9kbY",NA,"GeldDiagramFeedback",NA
"78",1601664830897,2,"02/10/2020 20:53:50","BLIND",9975359,NA,"complete",NA,"5f77712d1f70372b15f5612f","computer","Desktop or Laptop","Windows 10","Chrome 85.0.4183.121","1920x1080","1920x937","DiagramFeedback","DiagramFeedback","DiagramFeedback",12,"1",7,"Test","buttonB","continue_button",25360.9780740746,NA,NA,"",NA,"GeldDiagramFeedback",NA
"79",1601664832775,2,"02/10/2020 20:53:52","BLIND",9975359,NA,"complete",NA,"5f77712d1f70372b15f5612f","computer","Desktop or Laptop","Windows 10","Chrome 85.0.4183.121","1920x1080","1920x937","DiagramFeedback","DiagramFeedback","DiagramFeedback",11,"5",1,"Screen 1","advancementZone","continue_button",25360.9780740746,NA,NA,"",NA,"ReadyForNextTextScreen",NA
"8",1601663677361,2,"02/10/2020 20:34:37","BLIND",9975359,NA,"complete",NA,"5f77712d1f70372b15f5612f","computer","Desktop or Laptop","Windows 10","Chrome 85.0.4183.121","1920x1080","1920x937","DiagramFeedback","DiagramFeedback","DiagramFeedback",1,"1",3,"Screen 3","Zone1","continue_button",25360.9780740746,NA,NA,"",NA,"SportenDiagramFeedback",NA
"80",1601664903119,2,"02/10/2020 20:55:03","BLIND",9975359,NA,"complete",NA,"5f77712d1f70372b15f5612f","computer","Desktop or Laptop","Windows 10","Chrome 85.0.4183.121","1920x1080","1920x937","DiagramFeedback","DiagramFeedback","DiagramFeedback",10,"1",1,"Text","advancementZone","continue_button",25360.9780740746,NA,NA,"",NA,"MuziekDiagramFeedback",NA
"81",1601664904599,2,"02/10/2020 20:55:04","BLIND",9975359,NA,"complete",NA,"5f77712d1f70372b15f5612f","computer","Desktop or Laptop","Windows 10","Chrome 85.0.4183.121","1920x1080","1920x937","DiagramFeedback","DiagramFeedback","DiagramFeedback",10,"1",2,"JoL1","Three","response_button_text",25360.9780740746,NA,NA,"3",1,"MuziekDiagramFeedback",NA
"82",1601664960719,2,"02/10/2020 20:56:00","BLIND",9975359,NA,"complete",NA,"5f77712d1f70372b15f5612f","computer","Desktop or Laptop","Windows 10","Chrome 85.0.4183.121","1920x1080","1920x937","DiagramFeedback","DiagramFeedback","DiagramFeedback",10,"1",3,"Diagram","DiagBox1","response_text_area",25360.9780740746,NA,NA,"aEw",NA,"MuziekDiagramFeedback",NA
"83",1601664960721,2,"02/10/2020 20:56:00","BLIND",9975359,NA,"complete",NA,"5f77712d1f70372b15f5612f","computer","Desktop or Laptop","Windows 10","Chrome 85.0.4183.121","1920x1080","1920x937","DiagramFeedback","DiagramFeedback","DiagramFeedback",10,"1",3,"Diagram","DiagBox2","response_text_area",25360.9780740746,NA,NA,"MhnYF",NA,"MuziekDiagramFeedback",NA
"84",1601664960721,2,"02/10/2020 20:56:00","BLIND",9975359,NA,"complete",NA,"5f77712d1f70372b15f5612f","computer","Desktop or Laptop","Windows 10","Chrome 85.0.4183.121","1920x1080","1920x937","DiagramFeedback","DiagramFeedback","DiagramFeedback",10,"1",3,"Diagram","DiagBox3","response_text_area",25360.9780740746,NA,NA,"G2Z10d",NA,"MuziekDiagramFeedback",NA
"85",1601664960721,2,"02/10/2020 20:56:00","BLIND",9975359,NA,"complete",NA,"5f77712d1f70372b15f5612f","computer","Desktop or Laptop","Windows 10","Chrome 85.0.4183.121","1920x1080","1920x937","DiagramFeedback","DiagramFeedback","DiagramFeedback",10,"1",3,"Diagram","DiagBox4","response_text_area",25360.9780740746,NA,NA,"Y8K",NA,"MuziekDiagramFeedback",NA
"86",1601664960722,2,"02/10/2020 20:56:00","BLIND",9975359,NA,"complete",NA,"5f77712d1f70372b15f5612f","computer","Desktop or Laptop","Windows 10","Chrome 85.0.4183.121","1920x1080","1920x937","DiagramFeedback","DiagramFeedback","DiagramFeedback",10,"1",3,"Diagram","Zone1","continue_button",25360.9780740746,NA,NA,"",NA,"MuziekDiagramFeedback",NA
"87",1601664972142,2,"02/10/2020 20:56:12","BLIND",9975359,NA,"complete",NA,"5f77712d1f70372b15f5612f","computer","Desktop or Laptop","Windows 10","Chrome 85.0.4183.121","1920x1080","1920x937","DiagramFeedback","DiagramFeedback","DiagramFeedback",10,"1",4,"Feedback","Zone1","continue_button",25360.9780740746,NA,NA,"",NA,"MuziekDiagramFeedback",NA
"88",1601664973022,2,"02/10/2020 20:56:13","BLIND",9975359,NA,"complete",NA,"5f77712d1f70372b15f5612f","computer","Desktop or Laptop","Windows 10","Chrome 85.0.4183.121","1920x1080","1920x937","DiagramFeedback","DiagramFeedback","DiagramFeedback",10,"1",5,"JoL2","Four","response_button_text",25360.9780740746,NA,NA,"3",1,"MuziekDiagramFeedback",NA
"89",1601664974054,2,"02/10/2020 20:56:14","BLIND",9975359,NA,"complete",NA,"5f77712d1f70372b15f5612f","computer","Desktop or Laptop","Windows 10","Chrome 85.0.4183.121","1920x1080","1920x937","DiagramFeedback","DiagramFeedback","DiagramFeedback",10,"1",6,"InstructieToets","advancementZone","continue_button",25360.9780740746,NA,NA,"",NA,"MuziekDiagramFeedback",NA
"9",1601663693961,2,"02/10/2020 20:34:53","BLIND",9975359,NA,"complete",NA,"5f77712d1f70372b15f5612f","computer","Desktop or Laptop","Windows 10","Chrome 85.0.4183.121","1920x1080","1920x937","DiagramFeedback","DiagramFeedback","DiagramFeedback",1,"1",4,"Feedback","Zone1","continue_button",25360.9780740746,NA,NA,"",NA,"SportenDiagramFeedback",NA
"90",1601665047006,2,"02/10/2020 20:57:27","BLIND",9975359,NA,"complete",NA,"5f77712d1f70372b15f5612f","computer","Desktop or Laptop","Windows 10","Chrome 85.0.4183.121","1920x1080","1920x937","DiagramFeedback","DiagramFeedback","DiagramFeedback",10,"1",7,"Test","buttonA","response_text_area",25360.9780740746,NA,NA,"Ftyj",NA,"MuziekDiagramFeedback",NA
"91",1601665047008,2,"02/10/2020 20:57:27","BLIND",9975359,NA,"complete",NA,"5f77712d1f70372b15f5612f","computer","Desktop or Laptop","Windows 10","Chrome 85.0.4183.121","1920x1080","1920x937","DiagramFeedback","DiagramFeedback","DiagramFeedback",10,"1",7,"Test","buttonB","continue_button",25360.9780740746,NA,NA,"",NA,"MuziekDiagramFeedback",NA
"92",1601665047012,2,"02/10/2020 20:57:27","BLIND",9975359,NA,"complete",NA,"5f77712d1f70372b15f5612f","computer","Desktop or Laptop","Windows 10","Chrome 85.0.4183.121","1920x1080","1920x937","DiagramFeedback","DiagramFeedback","",NA,"END TASK",NA,"","","",1520120,NA,NA,"",NA,"",NA
"END OF FILE",NA,NA,"","",NA,NA,"",NA,"","","","","","","","","","",NA,"",NA,"","","",25360.9780740746,NA,NA,"",NA,"",NA
"END OF FILE",NA,NA,"","",NA,NA,"",NA,"","","","","","","","","","",NA,"",NA,"","","",NA,NA,NA,"",NA,"",NA
