"Event_Index","Local_Timestamp","Local_Timezone","Local_Date","Participant_Public_ID","Participant_Private_ID","Participant_Starting_Group","Participant_Status","Participant_Completion_Code","Participant_External_Session_ID","Participant_Device_Type","Participant_Device","Participant_OS","Participant_Browser","Participant_Monitor_Size","Participant_Viewport_Size","randomiser_81rl","Spreadsheet","Spreadsheet_Name","Spreadsheet_Row","Trial_Number","Screen_Number","Screen_Name","Zone_Name","Zone_Type","Reaction_Time","Reaction_Onset","Response_Type","Response","Attempt","display"
"1",1605104043369,1,"11/11/2020 15:14:03","BLIND",1071064,NA,"complete",NA,"5fabf11c85a54d0b95e9da33","computer","Desktop or Laptop","Windows 10","Firefox 82.0","1920x1080","1920x966","PictureMapping","AliceSportIntroPictureMapping","",NA,"BEGIN TASK",NA,"","","","",NA,NA,"",NA,""
"10",1605105074735,1,"11/11/2020 15:31:14","BLIND",1071064,NA,"complete",NA,"5fabf11c85a54d0b95e9da33","computer","Desktop or Laptop","Windows 10","Firefox 82.0","1920x1080","1920x966","PictureMapping","AliceSportIntroPictureMapping","AliceSportIntroPictureMapping",3,"1",4,"PictureMapping","Zone3","continue_button","83690.4010096116",NA,NA,"",NA,"SportenPictureMapping"
"11",1605105076869,1,"11/11/2020 15:31:16","BLIND",1071064,NA,"complete",NA,"5fabf11c85a54d0b95e9da33","computer","Desktop or Laptop","Windows 10","Firefox 82.0","1920x1080","1920x966","PictureMapping","AliceSportIntroPictureMapping","AliceSportIntroPictureMapping",3,"1",5,"JoL2","Two","response_button_text","83690.4010096116",NA,NA,"4",1,"SportenPictureMapping"
"12",1605105078621,1,"11/11/2020 15:31:18","BLIND",1071064,NA,"complete",NA,"5fabf11c85a54d0b95e9da33","computer","Desktop or Laptop","Windows 10","Firefox 82.0","1920x1080","1920x966","PictureMapping","AliceSportIntroPictureMapping","AliceSportIntroPictureMapping",3,"1",6,"InstructieToets","advancementZone","continue_button","83690.4010096116",NA,NA,"",NA,"SportenPictureMapping"
"13",1605105149053,1,"11/11/2020 15:32:29","BLIND",1071064,NA,"complete",NA,"5fabf11c85a54d0b95e9da33","computer","Desktop or Laptop","Windows 10","Firefox 82.0","1920x1080","1920x966","PictureMapping","AliceSportIntroPictureMapping","AliceSportIntroPictureMapping",3,"1",7,"Test","buttonA","response_text_area","83690.4010096116",NA,NA,"wge1U4hc1",NA,"SportenPictureMapping"
"14",1605105149055,1,"11/11/2020 15:32:29","BLIND",1071064,NA,"complete",NA,"5fabf11c85a54d0b95e9da33","computer","Desktop or Laptop","Windows 10","Firefox 82.0","1920x1080","1920x966","PictureMapping","AliceSportIntroPictureMapping","AliceSportIntroPictureMapping",3,"1",7,"Test","buttonB","continue_button","83690.4010096116",NA,NA,"",NA,"SportenPictureMapping"
"15",1605105150941,1,"11/11/2020 15:32:30","BLIND",1071064,NA,"complete",NA,"5fabf11c85a54d0b95e9da33","computer","Desktop or Laptop","Windows 10","Firefox 82.0","1920x1080","1920x966","PictureMapping","AliceSportIntroPictureMapping","AliceSportIntroPictureMapping",4,"1",1,"Screen 1","advancementZone","continue_button","83690.4010096116",NA,NA,"",NA,"ReadyForExperiment"
"16",1605105150945,1,"11/11/2020 15:32:30","BLIND",1071064,NA,"complete",NA,"5fabf11c85a54d0b95e9da33","computer","Desktop or Laptop","Windows 10","Firefox 82.0","1920x1080","1920x966","PictureMapping","AliceSportIntroPictureMapping","",NA,"END TASK",NA,"","","","1107576",NA,NA,"",NA,""
"2",1605104046302,1,"11/11/2020 15:14:06","BLIND",1071064,NA,"complete",NA,"5fabf11c85a54d0b95e9da33","computer","Desktop or Laptop","Windows 10","Firefox 82.0","1920x1080","1920x966","PictureMapping","AliceSportIntroPictureMapping","AliceSportIntroPictureMapping",1,"1",1,"Screen 1","advancementZone","continue_button","83690.4010096116",NA,NA,"",NA,"IntroAlice"
"3",1605104056305,1,"11/11/2020 15:14:16","BLIND",1071064,NA,"complete",NA,"5fabf11c85a54d0b95e9da33","computer","Desktop or Laptop","Windows 10","Firefox 82.0","1920x1080","1920x966","PictureMapping","AliceSportIntroPictureMapping","",NA,"",NA,"","","","83690.4010096116",NA,NA,"A loading delay of more than 10s was detected.",NA,""
"4",1605104200035,1,"11/11/2020 15:16:40","BLIND",1071064,NA,"complete",NA,"5fabf11c85a54d0b95e9da33","computer","Desktop or Laptop","Windows 10","Firefox 82.0","1920x1080","1920x966","PictureMapping","AliceSportIntroPictureMapping","AliceSportIntroPictureMapping",2,"1",1,"Screen 1","content","content_video","83690.4010096116",NA,NA,"",NA,"AlicePictureMappingIntroVid"
"5",1605104964366,1,"11/11/2020 15:29:24","BLIND",1071064,NA,"complete",NA,"5fabf11c85a54d0b95e9da33","computer","Desktop or Laptop","Windows 10","Firefox 82.0","1920x1080","1920x966","PictureMapping","AliceSportIntroPictureMapping","AliceSportIntroPictureMapping",2,"1",2,"Klaar4Sporten","advancementZone","continue_button","83690.4010096116",NA,NA,"",NA,"AlicePictureMappingIntroVid"
"6",1605105005645,1,"11/11/2020 15:30:05","BLIND",1071064,NA,"complete",NA,"5fabf11c85a54d0b95e9da33","computer","Desktop or Laptop","Windows 10","Firefox 82.0","1920x1080","1920x966","PictureMapping","AliceSportIntroPictureMapping","AliceSportIntroPictureMapping",3,"1",1,"Text","advancementZone","continue_button","83690.4010096116",NA,NA,"",NA,"SportenPictureMapping"
"7",1605105008774,1,"11/11/2020 15:30:08","BLIND",1071064,NA,"complete",NA,"5fabf11c85a54d0b95e9da33","computer","Desktop or Laptop","Windows 10","Firefox 82.0","1920x1080","1920x966","PictureMapping","AliceSportIntroPictureMapping","AliceSportIntroPictureMapping",3,"1",2,"JoL1","Two","response_button_text","83690.4010096116",NA,NA,"4",1,"SportenPictureMapping"
"8",1605105012213,1,"11/11/2020 15:30:12","BLIND",1071064,NA,"complete",NA,"5fabf11c85a54d0b95e9da33","computer","Desktop or Laptop","Windows 10","Firefox 82.0","1920x1080","1920x966","PictureMapping","AliceSportIntroPictureMapping","AliceSportIntroPictureMapping",3,"1",3,"IntroPictureMapping","advancementZone","continue_keyboard","83690.4010096116",NA,NA,"",NA,"SportenPictureMapping"
"9",1605105074733,1,"11/11/2020 15:31:14","BLIND",1071064,NA,"complete",NA,"5fabf11c85a54d0b95e9da33","computer","Desktop or Laptop","Windows 10","Firefox 82.0","1920x1080","1920x966","PictureMapping","AliceSportIntroPictureMapping","AliceSportIntroPictureMapping",3,"1",4,"PictureMapping","PictureMappingResponse","response_text_entry","83690.4010096116",NA,NA,"2",NA,"SportenPictureMapping"
"1",1604070644525,1,"30/10/2020 16:10:44","BLIND",1624316,NA,"complete",NA,"5f9c2c1feef84507fa1c53d7","computer","Desktop or Laptop","Windows 10","Chrome 86.0.4240.111","1536x864","1536x754","PictureMapping","AliceSportIntroPictureMapping","",NA,"BEGIN TASK",NA,"","","","",NA,NA,"",NA,""
"10",1604070906105,1,"30/10/2020 16:15:06","BLIND",1624316,NA,"complete",NA,"5f9c2c1feef84507fa1c53d7","computer","Desktop or Laptop","Windows 10","Chrome 86.0.4240.111","1536x864","1536x754","PictureMapping","AliceSportIntroPictureMapping","AliceSportIntroPictureMapping",3,"1",5,"JoL2","Two","response_button_text","83690.4010096116",NA,NA,"4",1,"SportenPictureMapping"
"11",1604070908404,1,"30/10/2020 16:15:08","BLIND",1624316,NA,"complete",NA,"5f9c2c1feef84507fa1c53d7","computer","Desktop or Laptop","Windows 10","Chrome 86.0.4240.111","1536x864","1536x754","PictureMapping","AliceSportIntroPictureMapping","AliceSportIntroPictureMapping",3,"1",6,"InstructieToets","advancementZone","continue_button","83690.4010096116",NA,NA,"",NA,"SportenPictureMapping"
"12",1604070981094,1,"30/10/2020 16:16:21","BLIND",1624316,NA,"complete",NA,"5f9c2c1feef84507fa1c53d7","computer","Desktop or Laptop","Windows 10","Chrome 86.0.4240.111","1536x864","1536x754","PictureMapping","AliceSportIntroPictureMapping","AliceSportIntroPictureMapping",3,"1",7,"Test","buttonA","response_text_area","83690.4010096116",NA,NA,"e36",NA,"SportenPictureMapping"
"13",1604070981095,1,"30/10/2020 16:16:21","BLIND",1624316,NA,"complete",NA,"5f9c2c1feef84507fa1c53d7","computer","Desktop or Laptop","Windows 10","Chrome 86.0.4240.111","1536x864","1536x754","PictureMapping","AliceSportIntroPictureMapping","AliceSportIntroPictureMapping",3,"1",7,"Test","buttonB","continue_button","83690.4010096116",NA,NA,"",NA,"SportenPictureMapping"
"14",1604070982888,1,"30/10/2020 16:16:22","BLIND",1624316,NA,"complete",NA,"5f9c2c1feef84507fa1c53d7","computer","Desktop or Laptop","Windows 10","Chrome 86.0.4240.111","1536x864","1536x754","PictureMapping","AliceSportIntroPictureMapping","AliceSportIntroPictureMapping",4,"1",1,"Screen 1","advancementZone","continue_button","83690.4010096116",NA,NA,"",NA,"ReadyForExperiment"
"15",1604070982891,1,"30/10/2020 16:16:22","BLIND",1624316,NA,"complete",NA,"5f9c2c1feef84507fa1c53d7","computer","Desktop or Laptop","Windows 10","Chrome 86.0.4240.111","1536x864","1536x754","PictureMapping","AliceSportIntroPictureMapping","",NA,"END TASK",NA,"","","","338366",NA,NA,"",NA,""
"2",1604070648871,1,"30/10/2020 16:10:48","BLIND",1624316,NA,"complete",NA,"5f9c2c1feef84507fa1c53d7","computer","Desktop or Laptop","Windows 10","Chrome 86.0.4240.111","1536x864","1536x754","PictureMapping","AliceSportIntroPictureMapping","AliceSportIntroPictureMapping",1,"1",1,"Screen 1","advancementZone","continue_button","83690.4010096116",NA,NA,"",NA,"IntroAlice"
"3",1604070799128,1,"30/10/2020 16:13:19","BLIND",1624316,NA,"complete",NA,"5f9c2c1feef84507fa1c53d7","computer","Desktop or Laptop","Windows 10","Chrome 86.0.4240.111","1536x864","1536x754","PictureMapping","AliceSportIntroPictureMapping","AliceSportIntroPictureMapping",2,"1",1,"Screen 1","content","content_video","83690.4010096116",NA,NA,"",NA,"AlicePictureMappingIntroVid"
"4",1604070808052,1,"30/10/2020 16:13:28","BLIND",1624316,NA,"complete",NA,"5f9c2c1feef84507fa1c53d7","computer","Desktop or Laptop","Windows 10","Chrome 86.0.4240.111","1536x864","1536x754","PictureMapping","AliceSportIntroPictureMapping","AliceSportIntroPictureMapping",2,"1",2,"Klaar4Sporten","advancementZone","continue_button","83690.4010096116",NA,NA,"",NA,"AlicePictureMappingIntroVid"
"5",1604070845249,1,"30/10/2020 16:14:05","BLIND",1624316,NA,"complete",NA,"5f9c2c1feef84507fa1c53d7","computer","Desktop or Laptop","Windows 10","Chrome 86.0.4240.111","1536x864","1536x754","PictureMapping","AliceSportIntroPictureMapping","AliceSportIntroPictureMapping",3,"1",1,"Text","advancementZone","continue_button","83690.4010096116",NA,NA,"",NA,"SportenPictureMapping"
"6",1604070847321,1,"30/10/2020 16:14:07","BLIND",1624316,NA,"complete",NA,"5f9c2c1feef84507fa1c53d7","computer","Desktop or Laptop","Windows 10","Chrome 86.0.4240.111","1536x864","1536x754","PictureMapping","AliceSportIntroPictureMapping","AliceSportIntroPictureMapping",3,"1",2,"JoL1","Three","response_button_text","83690.4010096116",NA,NA,"4",1,"SportenPictureMapping"
"7",1604070852203,1,"30/10/2020 16:14:12","BLIND",1624316,NA,"complete",NA,"5f9c2c1feef84507fa1c53d7","computer","Desktop or Laptop","Windows 10","Chrome 86.0.4240.111","1536x864","1536x754","PictureMapping","AliceSportIntroPictureMapping","AliceSportIntroPictureMapping",3,"1",3,"IntroPictureMapping","advancementZone","continue_keyboard","83690.4010096116",NA,NA,"",NA,"SportenPictureMapping"
"8",1604070904013,1,"30/10/2020 16:15:04","BLIND",1624316,NA,"complete",NA,"5f9c2c1feef84507fa1c53d7","computer","Desktop or Laptop","Windows 10","Chrome 86.0.4240.111","1536x864","1536x754","PictureMapping","AliceSportIntroPictureMapping","AliceSportIntroPictureMapping",3,"1",4,"PictureMapping","PictureMappingResponse","response_text_entry","83690.4010096116",NA,NA,"2",NA,"SportenPictureMapping"
"9",1604070904014,1,"30/10/2020 16:15:04","BLIND",1624316,NA,"complete",NA,"5f9c2c1feef84507fa1c53d7","computer","Desktop or Laptop","Windows 10","Chrome 86.0.4240.111","1536x864","1536x754","PictureMapping","AliceSportIntroPictureMapping","AliceSportIntroPictureMapping",3,"1",4,"PictureMapping","Zone3","continue_button","83690.4010096116",NA,NA,"",NA,"SportenPictureMapping"
"1",1604569382351,1,"05/11/2020 10:43:02","BLIND",2409999,NA,"complete",NA,"5fa3c8382f35860107f38c45","computer","Desktop or Laptop","Windows 10","Chrome 86.0.4240.111","1536x864","1536x754","PictureMapping","AliceSportIntroPictureMapping","",NA,"BEGIN TASK",NA,"","","","",NA,NA,"",NA,""
"10",1604569643802,1,"05/11/2020 10:47:23","BLIND",2409999,NA,"complete",NA,"5fa3c8382f35860107f38c45","computer","Desktop or Laptop","Windows 10","Chrome 86.0.4240.111","1536x864","1536x754","PictureMapping","AliceSportIntroPictureMapping","AliceSportIntroPictureMapping",3,"1",4,"PictureMapping","Zone3","continue_button","83690.4010096116",NA,NA,"",NA,"SportenPictureMapping"
"11",1604569647493,1,"05/11/2020 10:47:27","BLIND",2409999,NA,"complete",NA,"5fa3c8382f35860107f38c45","computer","Desktop or Laptop","Windows 10","Chrome 86.0.4240.111","1536x864","1536x754","PictureMapping","AliceSportIntroPictureMapping","AliceSportIntroPictureMapping",3,"1",5,"JoL2","Two","response_button_text","83690.4010096116",NA,NA,"4",1,"SportenPictureMapping"
"12",1604569649429,1,"05/11/2020 10:47:29","BLIND",2409999,NA,"complete",NA,"5fa3c8382f35860107f38c45","computer","Desktop or Laptop","Windows 10","Chrome 86.0.4240.111","1536x864","1536x754","PictureMapping","AliceSportIntroPictureMapping","AliceSportIntroPictureMapping",3,"1",6,"InstructieToets","advancementZone","continue_button","83690.4010096116",NA,NA,"",NA,"SportenPictureMapping"
"13",1604569756567,1,"05/11/2020 10:49:16","BLIND",2409999,NA,"complete",NA,"5fa3c8382f35860107f38c45","computer","Desktop or Laptop","Windows 10","Chrome 86.0.4240.111","1536x864","1536x754","PictureMapping","AliceSportIntroPictureMapping","AliceSportIntroPictureMapping",3,"1",7,"Test","buttonA","response_text_area","83690.4010096116",NA,NA,"YHaZMb6KU",NA,"SportenPictureMapping"
"14",1604569756568,1,"05/11/2020 10:49:16","BLIND",2409999,NA,"complete",NA,"5fa3c8382f35860107f38c45","computer","Desktop or Laptop","Windows 10","Chrome 86.0.4240.111","1536x864","1536x754","PictureMapping","AliceSportIntroPictureMapping","AliceSportIntroPictureMapping",3,"1",7,"Test","buttonB","continue_button","83690.4010096116",NA,NA,"",NA,"SportenPictureMapping"
"15",1604569758444,1,"05/11/2020 10:49:18","BLIND",2409999,NA,"complete",NA,"5fa3c8382f35860107f38c45","computer","Desktop or Laptop","Windows 10","Chrome 86.0.4240.111","1536x864","1536x754","PictureMapping","AliceSportIntroPictureMapping","AliceSportIntroPictureMapping",4,"1",1,"Screen 1","advancementZone","continue_button","83690.4010096116",NA,NA,"",NA,"ReadyForExperiment"
"16",1604569758448,1,"05/11/2020 10:49:18","BLIND",2409999,NA,"complete",NA,"5fa3c8382f35860107f38c45","computer","Desktop or Laptop","Windows 10","Chrome 86.0.4240.111","1536x864","1536x754","PictureMapping","AliceSportIntroPictureMapping","",NA,"END TASK",NA,"","","","376097",NA,NA,"",NA,""
"2",1604569385735,1,"05/11/2020 10:43:05","BLIND",2409999,NA,"complete",NA,"5fa3c8382f35860107f38c45","computer","Desktop or Laptop","Windows 10","Chrome 86.0.4240.111","1536x864","1536x754","PictureMapping","AliceSportIntroPictureMapping","AliceSportIntroPictureMapping",1,"1",1,"Screen 1","advancementZone","continue_button","83690.4010096116",NA,NA,"",NA,"IntroAlice"
"3",1604569395741,1,"05/11/2020 10:43:15","BLIND",2409999,NA,"complete",NA,"5fa3c8382f35860107f38c45","computer","Desktop or Laptop","Windows 10","Chrome 86.0.4240.111","1536x864","1536x754","PictureMapping","AliceSportIntroPictureMapping","",NA,"",NA,"","","","83690.4010096116",NA,NA,"A loading delay of more than 10s was detected.",NA,""
"4",1604569544956,1,"05/11/2020 10:45:44","BLIND",2409999,NA,"complete",NA,"5fa3c8382f35860107f38c45","computer","Desktop or Laptop","Windows 10","Chrome 86.0.4240.111","1536x864","1536x754","PictureMapping","AliceSportIntroPictureMapping","AliceSportIntroPictureMapping",2,"1",1,"Screen 1","content","content_video","83690.4010096116",NA,NA,"",NA,"AlicePictureMappingIntroVid"
"5",1604569547662,1,"05/11/2020 10:45:47","BLIND",2409999,NA,"complete",NA,"5fa3c8382f35860107f38c45","computer","Desktop or Laptop","Windows 10","Chrome 86.0.4240.111","1536x864","1536x754","PictureMapping","AliceSportIntroPictureMapping","AliceSportIntroPictureMapping",2,"1",2,"Klaar4Sporten","advancementZone","continue_button","83690.4010096116",NA,NA,"",NA,"AlicePictureMappingIntroVid"
"6",1604569591073,1,"05/11/2020 10:46:31","BLIND",2409999,NA,"complete",NA,"5fa3c8382f35860107f38c45","computer","Desktop or Laptop","Windows 10","Chrome 86.0.4240.111","1536x864","1536x754","PictureMapping","AliceSportIntroPictureMapping","AliceSportIntroPictureMapping",3,"1",1,"Text","advancementZone","continue_button","83690.4010096116",NA,NA,"",NA,"SportenPictureMapping"
"7",1604569593817,1,"05/11/2020 10:46:33","BLIND",2409999,NA,"complete",NA,"5fa3c8382f35860107f38c45","computer","Desktop or Laptop","Windows 10","Chrome 86.0.4240.111","1536x864","1536x754","PictureMapping","AliceSportIntroPictureMapping","AliceSportIntroPictureMapping",3,"1",2,"JoL1","Two","response_button_text","83690.4010096116",NA,NA,"4",1,"SportenPictureMapping"
"8",1604569597890,1,"05/11/2020 10:46:37","BLIND",2409999,NA,"complete",NA,"5fa3c8382f35860107f38c45","computer","Desktop or Laptop","Windows 10","Chrome 86.0.4240.111","1536x864","1536x754","PictureMapping","AliceSportIntroPictureMapping","AliceSportIntroPictureMapping",3,"1",3,"IntroPictureMapping","advancementZone","continue_keyboard","83690.4010096116",NA,NA,"",NA,"SportenPictureMapping"
"9",1604569643800,1,"05/11/2020 10:47:23","BLIND",2409999,NA,"complete",NA,"5fa3c8382f35860107f38c45","computer","Desktop or Laptop","Windows 10","Chrome 86.0.4240.111","1536x864","1536x754","PictureMapping","AliceSportIntroPictureMapping","AliceSportIntroPictureMapping",3,"1",4,"PictureMapping","PictureMappingResponse","response_text_entry","83690.4010096116",NA,NA,"1",NA,"SportenPictureMapping"
"1",1604687535741,1,"06/11/2020 19:32:15","BLIND",2545370,NA,"complete",NA,"5fa59670ded6100c43392030","computer","Desktop or Laptop","Windows 10","Chrome 86.0.4240.183","1280x720","1280x578","PictureMapping","AliceSportIntroPictureMapping","",NA,"BEGIN TASK",NA,"","","","",NA,NA,"",NA,""
"10",1604687765999,1,"06/11/2020 19:36:05","BLIND",2545370,NA,"complete",NA,"5fa59670ded6100c43392030","computer","Desktop or Laptop","Windows 10","Chrome 86.0.4240.183","1280x720","1280x578","PictureMapping","AliceSportIntroPictureMapping","AliceSportIntroPictureMapping",3,"1",5,"JoL2","Three","response_button_text","83690.4010096116",NA,NA,"4",1,"SportenPictureMapping"
"11",1604687768454,1,"06/11/2020 19:36:08","BLIND",2545370,NA,"complete",NA,"5fa59670ded6100c43392030","computer","Desktop or Laptop","Windows 10","Chrome 86.0.4240.183","1280x720","1280x578","PictureMapping","AliceSportIntroPictureMapping","AliceSportIntroPictureMapping",3,"1",6,"InstructieToets","advancementZone","continue_button","83690.4010096116",NA,NA,"",NA,"SportenPictureMapping"
"12",1604687809492,1,"06/11/2020 19:36:49","BLIND",2545370,NA,"complete",NA,"5fa59670ded6100c43392030","computer","Desktop or Laptop","Windows 10","Chrome 86.0.4240.183","1280x720","1280x578","PictureMapping","AliceSportIntroPictureMapping","AliceSportIntroPictureMapping",3,"1",7,"Test","buttonA","response_text_area","83690.4010096116",NA,NA,"fwC44D9ap",NA,"SportenPictureMapping"
"13",1604687809494,1,"06/11/2020 19:36:49","BLIND",2545370,NA,"complete",NA,"5fa59670ded6100c43392030","computer","Desktop or Laptop","Windows 10","Chrome 86.0.4240.183","1280x720","1280x578","PictureMapping","AliceSportIntroPictureMapping","AliceSportIntroPictureMapping",3,"1",7,"Test","buttonB","continue_button","83690.4010096116",NA,NA,"",NA,"SportenPictureMapping"
"14",1604687812207,1,"06/11/2020 19:36:52","BLIND",2545370,NA,"complete",NA,"5fa59670ded6100c43392030","computer","Desktop or Laptop","Windows 10","Chrome 86.0.4240.183","1280x720","1280x578","PictureMapping","AliceSportIntroPictureMapping","AliceSportIntroPictureMapping",4,"1",1,"Screen 1","advancementZone","continue_button","83690.4010096116",NA,NA,"",NA,"ReadyForExperiment"
"15",1604687812211,1,"06/11/2020 19:36:52","BLIND",2545370,NA,"complete",NA,"5fa59670ded6100c43392030","computer","Desktop or Laptop","Windows 10","Chrome 86.0.4240.183","1280x720","1280x578","PictureMapping","AliceSportIntroPictureMapping","",NA,"END TASK",NA,"","","","276470",NA,NA,"",NA,""
"2",1604687540211,1,"06/11/2020 19:32:20","BLIND",2545370,NA,"complete",NA,"5fa59670ded6100c43392030","computer","Desktop or Laptop","Windows 10","Chrome 86.0.4240.183","1280x720","1280x578","PictureMapping","AliceSportIntroPictureMapping","AliceSportIntroPictureMapping",1,"1",1,"Screen 1","advancementZone","continue_button","83690.4010096116",NA,NA,"",NA,"IntroAlice"
"3",1604687687597,1,"06/11/2020 19:34:47","BLIND",2545370,NA,"complete",NA,"5fa59670ded6100c43392030","computer","Desktop or Laptop","Windows 10","Chrome 86.0.4240.183","1280x720","1280x578","PictureMapping","AliceSportIntroPictureMapping","AliceSportIntroPictureMapping",2,"1",1,"Screen 1","content","content_video","83690.4010096116",NA,NA,"",NA,"AlicePictureMappingIntroVid"
"4",1604687692479,1,"06/11/2020 19:34:52","BLIND",2545370,NA,"complete",NA,"5fa59670ded6100c43392030","computer","Desktop or Laptop","Windows 10","Chrome 86.0.4240.183","1280x720","1280x578","PictureMapping","AliceSportIntroPictureMapping","AliceSportIntroPictureMapping",2,"1",2,"Klaar4Sporten","advancementZone","continue_button","83690.4010096116",NA,NA,"",NA,"AlicePictureMappingIntroVid"
"5",1604687720735,1,"06/11/2020 19:35:20","BLIND",2545370,NA,"complete",NA,"5fa59670ded6100c43392030","computer","Desktop or Laptop","Windows 10","Chrome 86.0.4240.183","1280x720","1280x578","PictureMapping","AliceSportIntroPictureMapping","AliceSportIntroPictureMapping",3,"1",1,"Text","advancementZone","continue_button","83690.4010096116",NA,NA,"",NA,"SportenPictureMapping"
"6",1604687723657,1,"06/11/2020 19:35:23","BLIND",2545370,NA,"complete",NA,"5fa59670ded6100c43392030","computer","Desktop or Laptop","Windows 10","Chrome 86.0.4240.183","1280x720","1280x578","PictureMapping","AliceSportIntroPictureMapping","AliceSportIntroPictureMapping",3,"1",2,"JoL1","Three","response_button_text","83690.4010096116",NA,NA,"4",1,"SportenPictureMapping"
"7",1604687727097,1,"06/11/2020 19:35:27","BLIND",2545370,NA,"complete",NA,"5fa59670ded6100c43392030","computer","Desktop or Laptop","Windows 10","Chrome 86.0.4240.183","1280x720","1280x578","PictureMapping","AliceSportIntroPictureMapping","AliceSportIntroPictureMapping",3,"1",3,"IntroPictureMapping","advancementZone","continue_keyboard","83690.4010096116",NA,NA,"",NA,"SportenPictureMapping"
"8",1604687762160,1,"06/11/2020 19:36:02","BLIND",2545370,NA,"complete",NA,"5fa59670ded6100c43392030","computer","Desktop or Laptop","Windows 10","Chrome 86.0.4240.183","1280x720","1280x578","PictureMapping","AliceSportIntroPictureMapping","AliceSportIntroPictureMapping",3,"1",4,"PictureMapping","PictureMappingResponse","response_text_entry","83690.4010096116",NA,NA,"3",NA,"SportenPictureMapping"
"9",1604687762162,1,"06/11/2020 19:36:02","BLIND",2545370,NA,"complete",NA,"5fa59670ded6100c43392030","computer","Desktop or Laptop","Windows 10","Chrome 86.0.4240.183","1280x720","1280x578","PictureMapping","AliceSportIntroPictureMapping","AliceSportIntroPictureMapping",3,"1",4,"PictureMapping","Zone3","continue_button","83690.4010096116",NA,NA,"",NA,"SportenPictureMapping"
"1",1604243561411,1,"01/11/2020 16:12:41","BLIND",3425604,NA,"complete",NA,"5f9ec072c5870547e2c545c4","computer","Desktop or Laptop","Windows 10","Chrome 86.0.4240.111","1536x864","1536x792","PictureMapping","AliceSportIntroPictureMapping","",NA,"BEGIN TASK",NA,"","","","",NA,NA,"",NA,""
"10",1604243817422,1,"01/11/2020 16:16:57","BLIND",3425604,NA,"complete",NA,"5f9ec072c5870547e2c545c4","computer","Desktop or Laptop","Windows 10","Chrome 86.0.4240.111","1536x864","1536x792","PictureMapping","AliceSportIntroPictureMapping","AliceSportIntroPictureMapping",3,"1",5,"JoL2","Three","response_button_text","83690.4010096116",NA,NA,"4",1,"SportenPictureMapping"
"11",1604243820016,1,"01/11/2020 16:17:00","BLIND",3425604,NA,"complete",NA,"5f9ec072c5870547e2c545c4","computer","Desktop or Laptop","Windows 10","Chrome 86.0.4240.111","1536x864","1536x792","PictureMapping","AliceSportIntroPictureMapping","AliceSportIntroPictureMapping",3,"1",6,"InstructieToets","advancementZone","continue_button","83690.4010096116",NA,NA,"",NA,"SportenPictureMapping"
"12",1604243990523,1,"01/11/2020 16:19:50","BLIND",3425604,NA,"complete",NA,"5f9ec072c5870547e2c545c4","computer","Desktop or Laptop","Windows 10","Chrome 86.0.4240.111","1536x864","1536x792","PictureMapping","AliceSportIntroPictureMapping","AliceSportIntroPictureMapping",3,"1",7,"Test","buttonA","response_text_area","83690.4010096116",NA,NA,"FwH56",NA,"SportenPictureMapping"
"13",1604243990535,1,"01/11/2020 16:19:50","BLIND",3425604,NA,"complete",NA,"5f9ec072c5870547e2c545c4","computer","Desktop or Laptop","Windows 10","Chrome 86.0.4240.111","1536x864","1536x792","PictureMapping","AliceSportIntroPictureMapping","AliceSportIntroPictureMapping",3,"1",7,"Test","buttonB","continue_button","83690.4010096116",NA,NA,"",NA,"SportenPictureMapping"
"14",1604243993122,1,"01/11/2020 16:19:53","BLIND",3425604,NA,"complete",NA,"5f9ec072c5870547e2c545c4","computer","Desktop or Laptop","Windows 10","Chrome 86.0.4240.111","1536x864","1536x792","PictureMapping","AliceSportIntroPictureMapping","AliceSportIntroPictureMapping",4,"1",1,"Screen 1","advancementZone","continue_button","83690.4010096116",NA,NA,"",NA,"ReadyForExperiment"
"15",1604243993127,1,"01/11/2020 16:19:53","BLIND",3425604,NA,"complete",NA,"5f9ec072c5870547e2c545c4","computer","Desktop or Laptop","Windows 10","Chrome 86.0.4240.111","1536x864","1536x792","PictureMapping","AliceSportIntroPictureMapping","",NA,"END TASK",NA,"","","","431716",NA,NA,"",NA,""
"2",1604243567334,1,"01/11/2020 16:12:47","BLIND",3425604,NA,"complete",NA,"5f9ec072c5870547e2c545c4","computer","Desktop or Laptop","Windows 10","Chrome 86.0.4240.111","1536x864","1536x792","PictureMapping","AliceSportIntroPictureMapping","AliceSportIntroPictureMapping",1,"1",1,"Screen 1","advancementZone","continue_button","83690.4010096116",NA,NA,"",NA,"IntroAlice"
"3",1604243718375,1,"01/11/2020 16:15:18","BLIND",3425604,NA,"complete",NA,"5f9ec072c5870547e2c545c4","computer","Desktop or Laptop","Windows 10","Chrome 86.0.4240.111","1536x864","1536x792","PictureMapping","AliceSportIntroPictureMapping","AliceSportIntroPictureMapping",2,"1",1,"Screen 1","content","content_video","83690.4010096116",NA,NA,"",NA,"AlicePictureMappingIntroVid"
"4",1604243731267,1,"01/11/2020 16:15:31","BLIND",3425604,NA,"complete",NA,"5f9ec072c5870547e2c545c4","computer","Desktop or Laptop","Windows 10","Chrome 86.0.4240.111","1536x864","1536x792","PictureMapping","AliceSportIntroPictureMapping","AliceSportIntroPictureMapping",2,"1",2,"Klaar4Sporten","advancementZone","continue_button","83690.4010096116",NA,NA,"",NA,"AlicePictureMappingIntroVid"
"5",1604243767658,1,"01/11/2020 16:16:07","BLIND",3425604,NA,"complete",NA,"5f9ec072c5870547e2c545c4","computer","Desktop or Laptop","Windows 10","Chrome 86.0.4240.111","1536x864","1536x792","PictureMapping","AliceSportIntroPictureMapping","AliceSportIntroPictureMapping",3,"1",1,"Text","advancementZone","continue_button","83690.4010096116",NA,NA,"",NA,"SportenPictureMapping"
"6",1604243772225,1,"01/11/2020 16:16:12","BLIND",3425604,NA,"complete",NA,"5f9ec072c5870547e2c545c4","computer","Desktop or Laptop","Windows 10","Chrome 86.0.4240.111","1536x864","1536x792","PictureMapping","AliceSportIntroPictureMapping","AliceSportIntroPictureMapping",3,"1",2,"JoL1","Three","response_button_text","83690.4010096116",NA,NA,"4",1,"SportenPictureMapping"
"7",1604243776544,1,"01/11/2020 16:16:16","BLIND",3425604,NA,"complete",NA,"5f9ec072c5870547e2c545c4","computer","Desktop or Laptop","Windows 10","Chrome 86.0.4240.111","1536x864","1536x792","PictureMapping","AliceSportIntroPictureMapping","AliceSportIntroPictureMapping",3,"1",3,"IntroPictureMapping","advancementZone","continue_keyboard","83690.4010096116",NA,NA,"",NA,"SportenPictureMapping"
"8",1604243808002,1,"01/11/2020 16:16:48","BLIND",3425604,NA,"complete",NA,"5f9ec072c5870547e2c545c4","computer","Desktop or Laptop","Windows 10","Chrome 86.0.4240.111","1536x864","1536x792","PictureMapping","AliceSportIntroPictureMapping","AliceSportIntroPictureMapping",3,"1",4,"PictureMapping","PictureMappingResponse","response_text_entry","83690.4010096116",NA,NA,"2",NA,"SportenPictureMapping"
"9",1604243808005,1,"01/11/2020 16:16:48","BLIND",3425604,NA,"complete",NA,"5f9ec072c5870547e2c545c4","computer","Desktop or Laptop","Windows 10","Chrome 86.0.4240.111","1536x864","1536x792","PictureMapping","AliceSportIntroPictureMapping","AliceSportIntroPictureMapping",3,"1",4,"PictureMapping","Zone3","continue_button","83690.4010096116",NA,NA,"",NA,"SportenPictureMapping"
"1",1604134264725,1,"31/10/2020 09:51:04","BLIND",3718488,NA,"complete",NA,"5f9d24e395b8ea22b70714e2","computer","Desktop or Laptop","Windows 10","Chrome 86.0.4240.111","1920x1080","1920x947","PictureMapping","AliceSportIntroPictureMapping","",NA,"BEGIN TASK",NA,"","","","",NA,NA,"",NA,""
"10",1604134595972,1,"31/10/2020 09:56:35","BLIND",3718488,NA,"complete",NA,"5f9d24e395b8ea22b70714e2","computer","Desktop or Laptop","Windows 10","Chrome 86.0.4240.111","1920x1080","1920x947","PictureMapping","AliceSportIntroPictureMapping","AliceSportIntroPictureMapping",3,"1",5,"JoL2","Two","response_button_text","83690.4010096116",NA,NA,"4",1,"SportenPictureMapping"
"11",1604134598026,1,"31/10/2020 09:56:38","BLIND",3718488,NA,"complete",NA,"5f9d24e395b8ea22b70714e2","computer","Desktop or Laptop","Windows 10","Chrome 86.0.4240.111","1920x1080","1920x947","PictureMapping","AliceSportIntroPictureMapping","AliceSportIntroPictureMapping",3,"1",6,"InstructieToets","advancementZone","continue_button","83690.4010096116",NA,NA,"",NA,"SportenPictureMapping"
"12",1604134683504,1,"31/10/2020 09:58:03","BLIND",3718488,NA,"complete",NA,"5f9d24e395b8ea22b70714e2","computer","Desktop or Laptop","Windows 10","Chrome 86.0.4240.111","1920x1080","1920x947","PictureMapping","AliceSportIntroPictureMapping","AliceSportIntroPictureMapping",3,"1",7,"Test","buttonA","response_text_area","83690.4010096116",NA,NA,"vUWX",NA,"SportenPictureMapping"
"13",1604134683508,1,"31/10/2020 09:58:03","BLIND",3718488,NA,"complete",NA,"5f9d24e395b8ea22b70714e2","computer","Desktop or Laptop","Windows 10","Chrome 86.0.4240.111","1920x1080","1920x947","PictureMapping","AliceSportIntroPictureMapping","AliceSportIntroPictureMapping",3,"1",7,"Test","buttonB","continue_button","83690.4010096116",NA,NA,"",NA,"SportenPictureMapping"
"14",1604134685033,1,"31/10/2020 09:58:05","BLIND",3718488,NA,"complete",NA,"5f9d24e395b8ea22b70714e2","computer","Desktop or Laptop","Windows 10","Chrome 86.0.4240.111","1920x1080","1920x947","PictureMapping","AliceSportIntroPictureMapping","AliceSportIntroPictureMapping",4,"1",1,"Screen 1","advancementZone","continue_button","83690.4010096116",NA,NA,"",NA,"ReadyForExperiment"
"15",1604134685043,1,"31/10/2020 09:58:05","BLIND",3718488,NA,"complete",NA,"5f9d24e395b8ea22b70714e2","computer","Desktop or Laptop","Windows 10","Chrome 86.0.4240.111","1920x1080","1920x947","PictureMapping","AliceSportIntroPictureMapping","",NA,"END TASK",NA,"","","","420318",NA,NA,"",NA,""
"2",1604134268608,1,"31/10/2020 09:51:08","BLIND",3718488,NA,"complete",NA,"5f9d24e395b8ea22b70714e2","computer","Desktop or Laptop","Windows 10","Chrome 86.0.4240.111","1920x1080","1920x947","PictureMapping","AliceSportIntroPictureMapping","AliceSportIntroPictureMapping",1,"1",1,"Screen 1","advancementZone","continue_button","83690.4010096116",NA,NA,"",NA,"IntroAlice"
"3",1604134410275,1,"31/10/2020 09:53:30","BLIND",3718488,NA,"complete",NA,"5f9d24e395b8ea22b70714e2","computer","Desktop or Laptop","Windows 10","Chrome 86.0.4240.111","1920x1080","1920x947","PictureMapping","AliceSportIntroPictureMapping","AliceSportIntroPictureMapping",2,"1",1,"Screen 1","content","content_video","83690.4010096116",NA,NA,"",NA,"AlicePictureMappingIntroVid"
"4",1604134414466,1,"31/10/2020 09:53:34","BLIND",3718488,NA,"complete",NA,"5f9d24e395b8ea22b70714e2","computer","Desktop or Laptop","Windows 10","Chrome 86.0.4240.111","1920x1080","1920x947","PictureMapping","AliceSportIntroPictureMapping","AliceSportIntroPictureMapping",2,"1",2,"Klaar4Sporten","advancementZone","continue_button","83690.4010096116",NA,NA,"",NA,"AlicePictureMappingIntroVid"
"5",1604134465900,1,"31/10/2020 09:54:25","BLIND",3718488,NA,"complete",NA,"5f9d24e395b8ea22b70714e2","computer","Desktop or Laptop","Windows 10","Chrome 86.0.4240.111","1920x1080","1920x947","PictureMapping","AliceSportIntroPictureMapping","AliceSportIntroPictureMapping",3,"1",1,"Text","advancementZone","continue_button","83690.4010096116",NA,NA,"",NA,"SportenPictureMapping"
"6",1604134467501,1,"31/10/2020 09:54:27","BLIND",3718488,NA,"complete",NA,"5f9d24e395b8ea22b70714e2","computer","Desktop or Laptop","Windows 10","Chrome 86.0.4240.111","1920x1080","1920x947","PictureMapping","AliceSportIntroPictureMapping","AliceSportIntroPictureMapping",3,"1",2,"JoL1","Three","response_button_text","83690.4010096116",NA,NA,"4",1,"SportenPictureMapping"
"7",1604134474134,1,"31/10/2020 09:54:34","BLIND",3718488,NA,"complete",NA,"5f9d24e395b8ea22b70714e2","computer","Desktop or Laptop","Windows 10","Chrome 86.0.4240.111","1920x1080","1920x947","PictureMapping","AliceSportIntroPictureMapping","AliceSportIntroPictureMapping",3,"1",3,"IntroPictureMapping","advancementZone","continue_keyboard","83690.4010096116",NA,NA,"",NA,"SportenPictureMapping"
"8",1604134594181,1,"31/10/2020 09:56:34","BLIND",3718488,NA,"complete",NA,"5f9d24e395b8ea22b70714e2","computer","Desktop or Laptop","Windows 10","Chrome 86.0.4240.111","1920x1080","1920x947","PictureMapping","AliceSportIntroPictureMapping","AliceSportIntroPictureMapping",3,"1",4,"PictureMapping","PictureMappingResponse","response_text_entry","83690.4010096116",NA,NA,"2",NA,"SportenPictureMapping"
"9",1604134594207,1,"31/10/2020 09:56:34","BLIND",3718488,NA,"complete",NA,"5f9d24e395b8ea22b70714e2","computer","Desktop or Laptop","Windows 10","Chrome 86.0.4240.111","1920x1080","1920x947","PictureMapping","AliceSportIntroPictureMapping","AliceSportIntroPictureMapping",3,"1",4,"PictureMapping","Zone4","timelimit_screen","83690.4010096116",NA,NA,"",NA,"SportenPictureMapping"
"1",1604147084012,1,"31/10/2020 13:24:44","BLIND",4266614,NA,"complete",NA,"5f9d560c3f1ce32662782c0a","computer","Desktop or Laptop","Windows 10","Chrome 86.0.4240.75","1920x1080","1920x969","PictureMapping","AliceSportIntroPictureMapping","",NA,"BEGIN TASK",NA,"","","","",NA,NA,"",NA,""
"10",1604147403669,1,"31/10/2020 13:30:03","BLIND",4266614,NA,"complete",NA,"5f9d560c3f1ce32662782c0a","computer","Desktop or Laptop","Windows 10","Chrome 86.0.4240.75","1920x1080","1920x969","PictureMapping","AliceSportIntroPictureMapping","AliceSportIntroPictureMapping",3,"1",4,"PictureMapping","Zone3","continue_button","83690.4010096116",NA,NA,"",NA,"SportenPictureMapping"
"11",1604147405843,1,"31/10/2020 13:30:05","BLIND",4266614,NA,"complete",NA,"5f9d560c3f1ce32662782c0a","computer","Desktop or Laptop","Windows 10","Chrome 86.0.4240.75","1920x1080","1920x969","PictureMapping","AliceSportIntroPictureMapping","AliceSportIntroPictureMapping",3,"1",5,"JoL2","Three","response_button_text","83690.4010096116",NA,NA,"4",1,"SportenPictureMapping"
"12",1604147423806,1,"31/10/2020 13:30:23","BLIND",4266614,NA,"complete",NA,"5f9d560c3f1ce32662782c0a","computer","Desktop or Laptop","Windows 10","Chrome 86.0.4240.75","1920x1080","1920x969","PictureMapping","AliceSportIntroPictureMapping","AliceSportIntroPictureMapping",3,"1",6,"InstructieToets","advancementZone","continue_button","83690.4010096116",NA,NA,"",NA,"SportenPictureMapping"
"13",1604147578959,1,"31/10/2020 13:32:58","BLIND",4266614,NA,"complete",NA,"5f9d560c3f1ce32662782c0a","computer","Desktop or Laptop","Windows 10","Chrome 86.0.4240.75","1920x1080","1920x969","PictureMapping","AliceSportIntroPictureMapping","AliceSportIntroPictureMapping",3,"1",7,"Test","buttonA","response_text_area","83690.4010096116",NA,NA,"nfOtrVI",NA,"SportenPictureMapping"
"14",1604147578964,1,"31/10/2020 13:32:58","BLIND",4266614,NA,"complete",NA,"5f9d560c3f1ce32662782c0a","computer","Desktop or Laptop","Windows 10","Chrome 86.0.4240.75","1920x1080","1920x969","PictureMapping","AliceSportIntroPictureMapping","AliceSportIntroPictureMapping",3,"1",7,"Test","buttonB","continue_button","83690.4010096116",NA,NA,"",NA,"SportenPictureMapping"
"15",1604147581386,1,"31/10/2020 13:33:01","BLIND",4266614,NA,"complete",NA,"5f9d560c3f1ce32662782c0a","computer","Desktop or Laptop","Windows 10","Chrome 86.0.4240.75","1920x1080","1920x969","PictureMapping","AliceSportIntroPictureMapping","AliceSportIntroPictureMapping",4,"1",1,"Screen 1","advancementZone","continue_button","83690.4010096116",NA,NA,"",NA,"ReadyForExperiment"
"16",1604147581389,1,"31/10/2020 13:33:01","BLIND",4266614,NA,"complete",NA,"5f9d560c3f1ce32662782c0a","computer","Desktop or Laptop","Windows 10","Chrome 86.0.4240.75","1920x1080","1920x969","PictureMapping","AliceSportIntroPictureMapping","",NA,"END TASK",NA,"","","","497377",NA,NA,"",NA,""
"2",1604147085659,1,"31/10/2020 13:24:45","BLIND",4266614,NA,"complete",NA,"5f9d560c3f1ce32662782c0a","computer","Desktop or Laptop","Windows 10","Chrome 86.0.4240.75","1920x1080","1920x969","PictureMapping","AliceSportIntroPictureMapping","AliceSportIntroPictureMapping",1,"1",1,"Screen 1","advancementZone","continue_button","83690.4010096116",NA,NA,"",NA,"IntroAlice"
"3",1604147096142,1,"31/10/2020 13:24:56","BLIND",4266614,NA,"complete",NA,"5f9d560c3f1ce32662782c0a","computer","Desktop or Laptop","Windows 10","Chrome 86.0.4240.75","1920x1080","1920x969","PictureMapping","AliceSportIntroPictureMapping","",NA,"",NA,"","","","83690.4010096116",NA,NA,"A loading delay of more than 10s was detected.",NA,""
"4",1604147255157,1,"31/10/2020 13:27:35","BLIND",4266614,NA,"complete",NA,"5f9d560c3f1ce32662782c0a","computer","Desktop or Laptop","Windows 10","Chrome 86.0.4240.75","1920x1080","1920x969","PictureMapping","AliceSportIntroPictureMapping","AliceSportIntroPictureMapping",2,"1",1,"Screen 1","content","content_video","83690.4010096116",NA,NA,"",NA,"AlicePictureMappingIntroVid"
"5",1604147257932,1,"31/10/2020 13:27:37","BLIND",4266614,NA,"complete",NA,"5f9d560c3f1ce32662782c0a","computer","Desktop or Laptop","Windows 10","Chrome 86.0.4240.75","1920x1080","1920x969","PictureMapping","AliceSportIntroPictureMapping","AliceSportIntroPictureMapping",2,"1",2,"Klaar4Sporten","advancementZone","continue_button","83690.4010096116",NA,NA,"",NA,"AlicePictureMappingIntroVid"
"6",1604147306702,1,"31/10/2020 13:28:26","BLIND",4266614,NA,"complete",NA,"5f9d560c3f1ce32662782c0a","computer","Desktop or Laptop","Windows 10","Chrome 86.0.4240.75","1920x1080","1920x969","PictureMapping","AliceSportIntroPictureMapping","AliceSportIntroPictureMapping",3,"1",1,"Text","advancementZone","continue_button","83690.4010096116",NA,NA,"",NA,"SportenPictureMapping"
"7",1604147309984,1,"31/10/2020 13:28:29","BLIND",4266614,NA,"complete",NA,"5f9d560c3f1ce32662782c0a","computer","Desktop or Laptop","Windows 10","Chrome 86.0.4240.75","1920x1080","1920x969","PictureMapping","AliceSportIntroPictureMapping","AliceSportIntroPictureMapping",3,"1",2,"JoL1","Three","response_button_text","83690.4010096116",NA,NA,"4",1,"SportenPictureMapping"
"8",1604147314800,1,"31/10/2020 13:28:34","BLIND",4266614,NA,"complete",NA,"5f9d560c3f1ce32662782c0a","computer","Desktop or Laptop","Windows 10","Chrome 86.0.4240.75","1920x1080","1920x969","PictureMapping","AliceSportIntroPictureMapping","AliceSportIntroPictureMapping",3,"1",3,"IntroPictureMapping","advancementZone","continue_keyboard","83690.4010096116",NA,NA,"",NA,"SportenPictureMapping"
"9",1604147403668,1,"31/10/2020 13:30:03","BLIND",4266614,NA,"complete",NA,"5f9d560c3f1ce32662782c0a","computer","Desktop or Laptop","Windows 10","Chrome 86.0.4240.75","1920x1080","1920x969","PictureMapping","AliceSportIntroPictureMapping","AliceSportIntroPictureMapping",3,"1",4,"PictureMapping","PictureMappingResponse","response_text_entry","83690.4010096116",NA,NA,"2",NA,"SportenPictureMapping"
"1",1604072789630,1,"30/10/2020 16:46:29","BLIND",4414399,NA,"complete",NA,"5f9c2a3eb8e4a4075547b365","computer","Desktop or Laptop","Windows 10","Chrome 86.0.4240.111","1920x1080","1920x937","PictureMapping","AliceSportIntroPictureMapping","",NA,"BEGIN TASK",NA,"","","","",NA,NA,"",NA,""
"10",1604073041861,1,"30/10/2020 16:50:41","BLIND",4414399,NA,"complete",NA,"5f9c2a3eb8e4a4075547b365","computer","Desktop or Laptop","Windows 10","Chrome 86.0.4240.111","1920x1080","1920x937","PictureMapping","AliceSportIntroPictureMapping","AliceSportIntroPictureMapping",3,"1",5,"JoL2","Two","response_button_text","83690.4010096116",NA,NA,"4",1,"SportenPictureMapping"
"11",1604073043489,1,"30/10/2020 16:50:43","BLIND",4414399,NA,"complete",NA,"5f9c2a3eb8e4a4075547b365","computer","Desktop or Laptop","Windows 10","Chrome 86.0.4240.111","1920x1080","1920x937","PictureMapping","AliceSportIntroPictureMapping","AliceSportIntroPictureMapping",3,"1",6,"InstructieToets","advancementZone","continue_button","83690.4010096116",NA,NA,"",NA,"SportenPictureMapping"
"12",1604073126173,1,"30/10/2020 16:52:06","BLIND",4414399,NA,"complete",NA,"5f9c2a3eb8e4a4075547b365","computer","Desktop or Laptop","Windows 10","Chrome 86.0.4240.111","1920x1080","1920x937","PictureMapping","AliceSportIntroPictureMapping","AliceSportIntroPictureMapping",3,"1",7,"Test","buttonA","response_text_area","83690.4010096116",NA,NA,"sXvD",NA,"SportenPictureMapping"
"13",1604073126174,1,"30/10/2020 16:52:06","BLIND",4414399,NA,"complete",NA,"5f9c2a3eb8e4a4075547b365","computer","Desktop or Laptop","Windows 10","Chrome 86.0.4240.111","1920x1080","1920x937","PictureMapping","AliceSportIntroPictureMapping","AliceSportIntroPictureMapping",3,"1",7,"Test","buttonB","continue_button","83690.4010096116",NA,NA,"",NA,"SportenPictureMapping"
"14",1604073128104,1,"30/10/2020 16:52:08","BLIND",4414399,NA,"complete",NA,"5f9c2a3eb8e4a4075547b365","computer","Desktop or Laptop","Windows 10","Chrome 86.0.4240.111","1920x1080","1920x937","PictureMapping","AliceSportIntroPictureMapping","AliceSportIntroPictureMapping",4,"1",1,"Screen 1","advancementZone","continue_button","83690.4010096116",NA,NA,"",NA,"ReadyForExperiment"
"15",1604073128107,1,"30/10/2020 16:52:08","BLIND",4414399,NA,"complete",NA,"5f9c2a3eb8e4a4075547b365","computer","Desktop or Laptop","Windows 10","Chrome 86.0.4240.111","1920x1080","1920x937","PictureMapping","AliceSportIntroPictureMapping","",NA,"END TASK",NA,"","","","338477",NA,NA,"",NA,""
"2",1604072792884,1,"30/10/2020 16:46:32","BLIND",4414399,NA,"complete",NA,"5f9c2a3eb8e4a4075547b365","computer","Desktop or Laptop","Windows 10","Chrome 86.0.4240.111","1920x1080","1920x937","PictureMapping","AliceSportIntroPictureMapping","AliceSportIntroPictureMapping",1,"1",1,"Screen 1","advancementZone","continue_button","83690.4010096116",NA,NA,"",NA,"IntroAlice"
"3",1604072940442,1,"30/10/2020 16:49:00","BLIND",4414399,NA,"complete",NA,"5f9c2a3eb8e4a4075547b365","computer","Desktop or Laptop","Windows 10","Chrome 86.0.4240.111","1920x1080","1920x937","PictureMapping","AliceSportIntroPictureMapping","AliceSportIntroPictureMapping",2,"1",1,"Screen 1","content","content_video","83690.4010096116",NA,NA,"",NA,"AlicePictureMappingIntroVid"
"4",1604072942407,1,"30/10/2020 16:49:02","BLIND",4414399,NA,"complete",NA,"5f9c2a3eb8e4a4075547b365","computer","Desktop or Laptop","Windows 10","Chrome 86.0.4240.111","1920x1080","1920x937","PictureMapping","AliceSportIntroPictureMapping","AliceSportIntroPictureMapping",2,"1",2,"Klaar4Sporten","advancementZone","continue_button","83690.4010096116",NA,NA,"",NA,"AlicePictureMappingIntroVid"
"5",1604072960843,1,"30/10/2020 16:49:20","BLIND",4414399,NA,"complete",NA,"5f9c2a3eb8e4a4075547b365","computer","Desktop or Laptop","Windows 10","Chrome 86.0.4240.111","1920x1080","1920x937","PictureMapping","AliceSportIntroPictureMapping","AliceSportIntroPictureMapping",3,"1",1,"Text","advancementZone","continue_button","83690.4010096116",NA,NA,"",NA,"SportenPictureMapping"
"6",1604072966664,1,"30/10/2020 16:49:26","BLIND",4414399,NA,"complete",NA,"5f9c2a3eb8e4a4075547b365","computer","Desktop or Laptop","Windows 10","Chrome 86.0.4240.111","1920x1080","1920x937","PictureMapping","AliceSportIntroPictureMapping","AliceSportIntroPictureMapping",3,"1",2,"JoL1","Three","response_button_text","83690.4010096116",NA,NA,"4",1,"SportenPictureMapping"
"7",1604072975028,1,"30/10/2020 16:49:35","BLIND",4414399,NA,"complete",NA,"5f9c2a3eb8e4a4075547b365","computer","Desktop or Laptop","Windows 10","Chrome 86.0.4240.111","1920x1080","1920x937","PictureMapping","AliceSportIntroPictureMapping","AliceSportIntroPictureMapping",3,"1",3,"IntroPictureMapping","advancementZone","continue_keyboard","83690.4010096116",NA,NA,"",NA,"SportenPictureMapping"
"8",1604073036489,1,"30/10/2020 16:50:36","BLIND",4414399,NA,"complete",NA,"5f9c2a3eb8e4a4075547b365","computer","Desktop or Laptop","Windows 10","Chrome 86.0.4240.111","1920x1080","1920x937","PictureMapping","AliceSportIntroPictureMapping","AliceSportIntroPictureMapping",3,"1",4,"PictureMapping","PictureMappingResponse","response_text_entry","83690.4010096116",NA,NA,"0",NA,"SportenPictureMapping"
"9",1604073036490,1,"30/10/2020 16:50:36","BLIND",4414399,NA,"complete",NA,"5f9c2a3eb8e4a4075547b365","computer","Desktop or Laptop","Windows 10","Chrome 86.0.4240.111","1920x1080","1920x937","PictureMapping","AliceSportIntroPictureMapping","AliceSportIntroPictureMapping",3,"1",4,"PictureMapping","Zone3","continue_button","83690.4010096116",NA,NA,"",NA,"SportenPictureMapping"
"1",1604341861375,1,"02/11/2020 19:31:01","BLIND",4593208,NA,"complete",NA,"5fa0503da4998505fab6912c","computer","Desktop or Laptop","Mac OS 10.15.6","Opera 71.0.3770.284","1440x900","1251x772","PictureMapping","AliceSportIntroPictureMapping","",NA,"BEGIN TASK",NA,"","","","",NA,NA,"",NA,""
"10",1604342130422,1,"02/11/2020 19:35:30","BLIND",4593208,NA,"complete",NA,"5fa0503da4998505fab6912c","computer","Desktop or Laptop","Mac OS 10.15.6","Opera 71.0.3770.284","1440x900","1251x772","PictureMapping","AliceSportIntroPictureMapping","AliceSportIntroPictureMapping",3,"1",5,"JoL2","Three","response_button_text","83690.4010096116",NA,NA,"4",1,"SportenPictureMapping"
"11",1604342132118,1,"02/11/2020 19:35:32","BLIND",4593208,NA,"complete",NA,"5fa0503da4998505fab6912c","computer","Desktop or Laptop","Mac OS 10.15.6","Opera 71.0.3770.284","1440x900","1251x772","PictureMapping","AliceSportIntroPictureMapping","AliceSportIntroPictureMapping",3,"1",6,"InstructieToets","advancementZone","continue_button","83690.4010096116",NA,NA,"",NA,"SportenPictureMapping"
"12",1604342291289,1,"02/11/2020 19:38:11","BLIND",4593208,NA,"complete",NA,"5fa0503da4998505fab6912c","computer","Desktop or Laptop","Mac OS 10.15.6","Opera 71.0.3770.284","1440x900","1251x772","PictureMapping","AliceSportIntroPictureMapping","AliceSportIntroPictureMapping",3,"1",7,"Test","buttonA","response_text_area","83690.4010096116",NA,NA,"paDn6c9cTU",NA,"SportenPictureMapping"
"13",1604342291295,1,"02/11/2020 19:38:11","BLIND",4593208,NA,"complete",NA,"5fa0503da4998505fab6912c","computer","Desktop or Laptop","Mac OS 10.15.6","Opera 71.0.3770.284","1440x900","1251x772","PictureMapping","AliceSportIntroPictureMapping","AliceSportIntroPictureMapping",3,"1",7,"Test","buttonB","continue_button","83690.4010096116",NA,NA,"",NA,"SportenPictureMapping"
"14",1604342293042,1,"02/11/2020 19:38:13","BLIND",4593208,NA,"complete",NA,"5fa0503da4998505fab6912c","computer","Desktop or Laptop","Mac OS 10.15.6","Opera 71.0.3770.284","1440x900","1251x772","PictureMapping","AliceSportIntroPictureMapping","AliceSportIntroPictureMapping",4,"1",1,"Screen 1","advancementZone","continue_button","83690.4010096116",NA,NA,"",NA,"ReadyForExperiment"
"15",1604342293046,1,"02/11/2020 19:38:13","BLIND",4593208,NA,"complete",NA,"5fa0503da4998505fab6912c","computer","Desktop or Laptop","Mac OS 10.15.6","Opera 71.0.3770.284","1440x900","1251x772","PictureMapping","AliceSportIntroPictureMapping","",NA,"END TASK",NA,"","","","431672",NA,NA,"",NA,""
"2",1604341866899,1,"02/11/2020 19:31:06","BLIND",4593208,NA,"complete",NA,"5fa0503da4998505fab6912c","computer","Desktop or Laptop","Mac OS 10.15.6","Opera 71.0.3770.284","1440x900","1251x772","PictureMapping","AliceSportIntroPictureMapping","AliceSportIntroPictureMapping",1,"1",1,"Screen 1","advancementZone","continue_button","83690.4010096116",NA,NA,"",NA,"IntroAlice"
"3",1604342008535,1,"02/11/2020 19:33:28","BLIND",4593208,NA,"complete",NA,"5fa0503da4998505fab6912c","computer","Desktop or Laptop","Mac OS 10.15.6","Opera 71.0.3770.284","1440x900","1251x772","PictureMapping","AliceSportIntroPictureMapping","AliceSportIntroPictureMapping",2,"1",1,"Screen 1","content","content_video","83690.4010096116",NA,NA,"",NA,"AlicePictureMappingIntroVid"
"4",1604342010721,1,"02/11/2020 19:33:30","BLIND",4593208,NA,"complete",NA,"5fa0503da4998505fab6912c","computer","Desktop or Laptop","Mac OS 10.15.6","Opera 71.0.3770.284","1440x900","1251x772","PictureMapping","AliceSportIntroPictureMapping","AliceSportIntroPictureMapping",2,"1",2,"Klaar4Sporten","advancementZone","continue_button","83690.4010096116",NA,NA,"",NA,"AlicePictureMappingIntroVid"
"5",1604342076286,1,"02/11/2020 19:34:36","BLIND",4593208,NA,"complete",NA,"5fa0503da4998505fab6912c","computer","Desktop or Laptop","Mac OS 10.15.6","Opera 71.0.3770.284","1440x900","1251x772","PictureMapping","AliceSportIntroPictureMapping","AliceSportIntroPictureMapping",3,"1",1,"Text","advancementZone","continue_button","83690.4010096116",NA,NA,"",NA,"SportenPictureMapping"
"6",1604342078614,1,"02/11/2020 19:34:38","BLIND",4593208,NA,"complete",NA,"5fa0503da4998505fab6912c","computer","Desktop or Laptop","Mac OS 10.15.6","Opera 71.0.3770.284","1440x900","1251x772","PictureMapping","AliceSportIntroPictureMapping","AliceSportIntroPictureMapping",3,"1",2,"JoL1","Three","response_button_text","83690.4010096116",NA,NA,"4",1,"SportenPictureMapping"
"7",1604342083115,1,"02/11/2020 19:34:43","BLIND",4593208,NA,"complete",NA,"5fa0503da4998505fab6912c","computer","Desktop or Laptop","Mac OS 10.15.6","Opera 71.0.3770.284","1440x900","1251x772","PictureMapping","AliceSportIntroPictureMapping","AliceSportIntroPictureMapping",3,"1",3,"IntroPictureMapping","advancementZone","continue_keyboard","83690.4010096116",NA,NA,"",NA,"SportenPictureMapping"
"8",1604342128903,1,"02/11/2020 19:35:28","BLIND",4593208,NA,"complete",NA,"5fa0503da4998505fab6912c","computer","Desktop or Laptop","Mac OS 10.15.6","Opera 71.0.3770.284","1440x900","1251x772","PictureMapping","AliceSportIntroPictureMapping","AliceSportIntroPictureMapping",3,"1",4,"PictureMapping","PictureMappingResponse","response_text_entry","83690.4010096116",NA,NA,"2",NA,"SportenPictureMapping"
"9",1604342128905,1,"02/11/2020 19:35:28","BLIND",4593208,NA,"complete",NA,"5fa0503da4998505fab6912c","computer","Desktop or Laptop","Mac OS 10.15.6","Opera 71.0.3770.284","1440x900","1251x772","PictureMapping","AliceSportIntroPictureMapping","AliceSportIntroPictureMapping",3,"1",4,"PictureMapping","Zone3","continue_button","83690.4010096116",NA,NA,"",NA,"SportenPictureMapping"
"1",1604144978393,1,"31/10/2020 12:49:38","BLIND",4607555,NA,"complete",NA,"5f9d4f1a484a8f25a0aac099","computer","Desktop or Laptop","Linux x86_64","Chrome 86.0.4240.110","748x360","980x310","PictureMapping","AliceSportIntroPictureMapping","",NA,"BEGIN TASK",NA,"","","","",NA,NA,"",NA,""
"10",1604145434557,1,"31/10/2020 12:57:14","BLIND",4607555,NA,"complete",NA,"5f9d4f1a484a8f25a0aac099","computer","Desktop or Laptop","Windows 10","Chrome 86.0.4240.111","1920x1080","1920x969","PictureMapping","AliceSportIntroPictureMapping","AliceSportIntroPictureMapping",3,"1",3,"IntroPictureMapping","advancementZone","continue_keyboard","83690.4010096116",NA,NA,"",NA,"SportenPictureMapping"
"11",1604145521337,1,"31/10/2020 12:58:41","BLIND",4607555,NA,"complete",NA,"5f9d4f1a484a8f25a0aac099","computer","Desktop or Laptop","Windows 10","Chrome 86.0.4240.111","1920x1080","1920x969","PictureMapping","AliceSportIntroPictureMapping","AliceSportIntroPictureMapping",3,"1",4,"PictureMapping","PictureMappingResponse","response_text_entry","83690.4010096116",NA,NA,"2",NA,"SportenPictureMapping"
"12",1604145521340,1,"31/10/2020 12:58:41","BLIND",4607555,NA,"complete",NA,"5f9d4f1a484a8f25a0aac099","computer","Desktop or Laptop","Windows 10","Chrome 86.0.4240.111","1920x1080","1920x969","PictureMapping","AliceSportIntroPictureMapping","AliceSportIntroPictureMapping",3,"1",4,"PictureMapping","Zone3","continue_button","83690.4010096116",NA,NA,"",NA,"SportenPictureMapping"
"13",1604145522195,1,"31/10/2020 12:58:42","BLIND",4607555,NA,"complete",NA,"5f9d4f1a484a8f25a0aac099","computer","Desktop or Laptop","Windows 10","Chrome 86.0.4240.111","1920x1080","1920x969","PictureMapping","AliceSportIntroPictureMapping","AliceSportIntroPictureMapping",3,"1",5,"JoL2","Three","response_button_text","83690.4010096116",NA,NA,"4",1,"SportenPictureMapping"
"14",1604145523747,1,"31/10/2020 12:58:43","BLIND",4607555,NA,"complete",NA,"5f9d4f1a484a8f25a0aac099","computer","Desktop or Laptop","Windows 10","Chrome 86.0.4240.111","1920x1080","1920x969","PictureMapping","AliceSportIntroPictureMapping","AliceSportIntroPictureMapping",3,"1",6,"InstructieToets","advancementZone","continue_button","83690.4010096116",NA,NA,"",NA,"SportenPictureMapping"
"15",1604145546210,1,"31/10/2020 12:59:06","BLIND",4607555,NA,"complete",NA,"5f9d4f1a484a8f25a0aac099","computer","Desktop or Laptop","Windows 10","Chrome 86.0.4240.111","1920x1080","1920x969","PictureMapping","AliceSportIntroPictureMapping","AliceSportIntroPictureMapping",3,"1",7,"Test","buttonA","response_text_area","83690.4010096116",NA,NA,"?",NA,"SportenPictureMapping"
"16",1604145546212,1,"31/10/2020 12:59:06","BLIND",4607555,NA,"complete",NA,"5f9d4f1a484a8f25a0aac099","computer","Desktop or Laptop","Windows 10","Chrome 86.0.4240.111","1920x1080","1920x969","PictureMapping","AliceSportIntroPictureMapping","AliceSportIntroPictureMapping",3,"1",7,"Test","buttonB","continue_button","83690.4010096116",NA,NA,"",NA,"SportenPictureMapping"
"17",1604145548145,1,"31/10/2020 12:59:08","BLIND",4607555,NA,"complete",NA,"5f9d4f1a484a8f25a0aac099","computer","Desktop or Laptop","Windows 10","Chrome 86.0.4240.111","1920x1080","1920x969","PictureMapping","AliceSportIntroPictureMapping","AliceSportIntroPictureMapping",4,"1",1,"Screen 1","advancementZone","continue_button","83690.4010096116",NA,NA,"",NA,"ReadyForExperiment"
"18",1604145548149,1,"31/10/2020 12:59:08","BLIND",4607555,NA,"complete",NA,"5f9d4f1a484a8f25a0aac099","computer","Desktop or Laptop","Windows 10","Chrome 86.0.4240.111","1920x1080","1920x969","PictureMapping","AliceSportIntroPictureMapping","",NA,"END TASK",NA,"","","","144948",NA,NA,"",NA,""
"2",1604144983288,1,"31/10/2020 12:49:43","BLIND",4607555,NA,"complete",NA,"5f9d4f1a484a8f25a0aac099","computer","Desktop or Laptop","Linux x86_64","Chrome 86.0.4240.110","748x360","980x310","PictureMapping","AliceSportIntroPictureMapping","AliceSportIntroPictureMapping",1,"1",1,"Screen 1","advancementZone","continue_button","83690.4010096116",NA,NA,"",NA,"IntroAlice"
"3",1604144993301,1,"31/10/2020 12:49:53","BLIND",4607555,NA,"complete",NA,"5f9d4f1a484a8f25a0aac099","computer","Desktop or Laptop","Linux x86_64","Chrome 86.0.4240.110","748x360","980x310","PictureMapping","AliceSportIntroPictureMapping","",NA,"",NA,"","","","83690.4010096116",NA,NA,"A loading delay of more than 10s was detected.",NA,""
"4",1604145140621,1,"31/10/2020 12:52:20","BLIND",4607555,NA,"complete",NA,"5f9d4f1a484a8f25a0aac099","computer","Desktop or Laptop","Linux x86_64","Chrome 86.0.4240.110","748x360","980x310","PictureMapping","AliceSportIntroPictureMapping","AliceSportIntroPictureMapping",2,"1",1,"Screen 1","content","content_video","83690.4010096116",NA,NA,"",NA,"AlicePictureMappingIntroVid"
"5",1604145403202,1,"31/10/2020 12:56:43","BLIND",4607555,NA,"complete",NA,"5f9d4f1a484a8f25a0aac099","computer","Desktop or Laptop","Windows 10","Chrome 86.0.4240.111","1920x1080","1920x969","PictureMapping","AliceSportIntroPictureMapping","",NA,"BEGIN TASK",NA,"","","","",NA,NA,"",NA,""
"6",1604145413457,1,"31/10/2020 12:56:53","BLIND",4607555,NA,"complete",NA,"5f9d4f1a484a8f25a0aac099","computer","Desktop or Laptop","Windows 10","Chrome 86.0.4240.111","1920x1080","1920x969","PictureMapping","AliceSportIntroPictureMapping","",NA,"",NA,"","","","83690.4010096116",NA,NA,"A loading delay of more than 10s was detected.",NA,""
"7",1604145418934,1,"31/10/2020 12:56:58","BLIND",4607555,NA,"complete",NA,"5f9d4f1a484a8f25a0aac099","computer","Desktop or Laptop","Windows 10","Chrome 86.0.4240.111","1920x1080","1920x969","PictureMapping","AliceSportIntroPictureMapping","AliceSportIntroPictureMapping",2,"1",2,"Klaar4Sporten","advancementZone","continue_button","83690.4010096116",NA,NA,"",NA,"AlicePictureMappingIntroVid"
"8",1604145419412,1,"31/10/2020 12:56:59","BLIND",4607555,NA,"complete",NA,"5f9d4f1a484a8f25a0aac099","computer","Desktop or Laptop","Windows 10","Chrome 86.0.4240.111","1920x1080","1920x969","PictureMapping","AliceSportIntroPictureMapping","AliceSportIntroPictureMapping",3,"1",1,"Text","advancementZone","continue_button","83690.4010096116",NA,NA,"",NA,"SportenPictureMapping"
"9",1604145427071,1,"31/10/2020 12:57:07","BLIND",4607555,NA,"complete",NA,"5f9d4f1a484a8f25a0aac099","computer","Desktop or Laptop","Windows 10","Chrome 86.0.4240.111","1920x1080","1920x969","PictureMapping","AliceSportIntroPictureMapping","AliceSportIntroPictureMapping",3,"1",2,"JoL1","Three","response_button_text","83690.4010096116",NA,NA,"4",1,"SportenPictureMapping"
"1",1604084939050,1,"30/10/2020 20:08:59","BLIND",6543048,NA,"complete",NA,"5f9c63b7fa89fe0fac755bea","computer","Desktop or Laptop","Linux x86_64","Chrome 86.0.4240.110","869x412","980x410","PictureMapping","AliceSportIntroPictureMapping","",NA,"BEGIN TASK",NA,"","","","",NA,NA,"",NA,""
"10",1604089876489,1,"30/10/2020 21:31:16","BLIND",6543048,NA,"complete",NA,"5f9c63b7fa89fe0fac755bea","computer","Desktop or Laptop","Windows 10","Chrome 86.0.4240.111","1536x864","1536x754","PictureMapping","AliceSportIntroPictureMapping","AliceSportIntroPictureMapping",3,"1",4,"PictureMapping","PictureMappingResponse","response_text_entry","83690.4010096116",NA,NA,"1",NA,"SportenPictureMapping"
"11",1604089876491,1,"30/10/2020 21:31:16","BLIND",6543048,NA,"complete",NA,"5f9c63b7fa89fe0fac755bea","computer","Desktop or Laptop","Windows 10","Chrome 86.0.4240.111","1536x864","1536x754","PictureMapping","AliceSportIntroPictureMapping","AliceSportIntroPictureMapping",3,"1",4,"PictureMapping","Zone3","continue_button","83690.4010096116",NA,NA,"",NA,"SportenPictureMapping"
"12",1604089882340,1,"30/10/2020 21:31:22","BLIND",6543048,NA,"complete",NA,"5f9c63b7fa89fe0fac755bea","computer","Desktop or Laptop","Windows 10","Chrome 86.0.4240.111","1536x864","1536x754","PictureMapping","AliceSportIntroPictureMapping","AliceSportIntroPictureMapping",3,"1",5,"JoL2","One","response_button_text","83690.4010096116",NA,NA,"4",1,"SportenPictureMapping"
"13",1604089884231,1,"30/10/2020 21:31:24","BLIND",6543048,NA,"complete",NA,"5f9c63b7fa89fe0fac755bea","computer","Desktop or Laptop","Windows 10","Chrome 86.0.4240.111","1536x864","1536x754","PictureMapping","AliceSportIntroPictureMapping","AliceSportIntroPictureMapping",3,"1",6,"InstructieToets","advancementZone","continue_button","83690.4010096116",NA,NA,"",NA,"SportenPictureMapping"
"14",1604089948962,1,"30/10/2020 21:32:28","BLIND",6543048,NA,"complete",NA,"5f9c63b7fa89fe0fac755bea","computer","Desktop or Laptop","Windows 10","Chrome 86.0.4240.111","1536x864","1536x754","PictureMapping","AliceSportIntroPictureMapping","AliceSportIntroPictureMapping",3,"1",7,"Test","buttonA","response_text_area","83690.4010096116",NA,NA,"04Nb",NA,"SportenPictureMapping"
"15",1604089948965,1,"30/10/2020 21:32:28","BLIND",6543048,NA,"complete",NA,"5f9c63b7fa89fe0fac755bea","computer","Desktop or Laptop","Windows 10","Chrome 86.0.4240.111","1536x864","1536x754","PictureMapping","AliceSportIntroPictureMapping","AliceSportIntroPictureMapping",3,"1",7,"Test","buttonB","continue_button","83690.4010096116",NA,NA,"",NA,"SportenPictureMapping"
"16",1604089949013,1,"30/10/2020 21:32:29","BLIND",6543048,NA,"complete",NA,"5f9c63b7fa89fe0fac755bea","computer","Desktop or Laptop","Windows 10","Chrome 86.0.4240.111","1536x864","1536x754","PictureMapping","AliceSportIntroPictureMapping","AliceSportIntroPictureMapping",4,"1",1,"Screen 1","advancementZone","continue_button","83690.4010096116",NA,NA,"",NA,"ReadyForExperiment"
"17",1604089949020,1,"30/10/2020 21:32:29","BLIND",6543048,NA,"complete",NA,"5f9c63b7fa89fe0fac755bea","computer","Desktop or Laptop","Windows 10","Chrome 86.0.4240.111","1536x864","1536x754","PictureMapping","AliceSportIntroPictureMapping","",NA,"END TASK",NA,"","","","154322",NA,NA,"",NA,""
"2",1604084950071,1,"30/10/2020 20:09:10","BLIND",6543048,NA,"complete",NA,"5f9c63b7fa89fe0fac755bea","computer","Desktop or Laptop","Linux x86_64","Chrome 86.0.4240.110","869x412","980x410","PictureMapping","AliceSportIntroPictureMapping","AliceSportIntroPictureMapping",1,"1",1,"Screen 1","advancementZone","continue_button","83690.4010096116",NA,NA,"",NA,"IntroAlice"
"3",1604085218895,1,"30/10/2020 20:13:38","BLIND",6543048,NA,"complete",NA,"5f9c63b7fa89fe0fac755bea","computer","Desktop or Laptop","Linux x86_64","Chrome 86.0.4240.110","412x869","980x1745","PictureMapping","AliceSportIntroPictureMapping","AliceSportIntroPictureMapping",2,"1",1,"Screen 1","content","content_video","83690.4010096116",NA,NA,"",NA,"AlicePictureMappingIntroVid"
"4",1604085222590,1,"30/10/2020 20:13:42","BLIND",6543048,NA,"complete",NA,"5f9c63b7fa89fe0fac755bea","computer","Desktop or Laptop","Linux x86_64","Chrome 86.0.4240.110","412x869","980x1745","PictureMapping","AliceSportIntroPictureMapping","AliceSportIntroPictureMapping",2,"1",2,"Klaar4Sporten","advancementZone","continue_button","83690.4010096116",NA,NA,"",NA,"AlicePictureMappingIntroVid"
"5",1604085249349,1,"30/10/2020 20:14:09","BLIND",6543048,NA,"complete",NA,"5f9c63b7fa89fe0fac755bea","computer","Desktop or Laptop","Linux x86_64","Chrome 86.0.4240.110","869x412","980x410","PictureMapping","AliceSportIntroPictureMapping","AliceSportIntroPictureMapping",3,"1",1,"Text","advancementZone","continue_button","83690.4010096116",NA,NA,"",NA,"SportenPictureMapping"
"6",1604085250718,1,"30/10/2020 20:14:10","BLIND",6543048,NA,"complete",NA,"5f9c63b7fa89fe0fac755bea","computer","Desktop or Laptop","Linux x86_64","Chrome 86.0.4240.110","869x412","980x410","PictureMapping","AliceSportIntroPictureMapping","AliceSportIntroPictureMapping",3,"1",2,"JoL1","Three","response_button_text","83690.4010096116",NA,NA,"4",1,"SportenPictureMapping"
"7",1604089794698,1,"30/10/2020 21:29:54","BLIND",6543048,NA,"complete",NA,"5f9c63b7fa89fe0fac755bea","computer","Desktop or Laptop","Windows 10","Chrome 86.0.4240.111","1536x864","1536x754","PictureMapping","AliceSportIntroPictureMapping","",NA,"BEGIN TASK",NA,"","","","",NA,NA,"",NA,""
"8",1604089804891,1,"30/10/2020 21:30:04","BLIND",6543048,NA,"complete",NA,"5f9c63b7fa89fe0fac755bea","computer","Desktop or Laptop","Windows 10","Chrome 86.0.4240.111","1536x864","1536x754","PictureMapping","AliceSportIntroPictureMapping","",NA,"",NA,"","","","83690.4010096116",NA,NA,"A loading delay of more than 10s was detected.",NA,""
"9",1604089839639,1,"30/10/2020 21:30:39","BLIND",6543048,NA,"complete",NA,"5f9c63b7fa89fe0fac755bea","computer","Desktop or Laptop","Windows 10","Chrome 86.0.4240.111","1536x864","1536x754","PictureMapping","AliceSportIntroPictureMapping","AliceSportIntroPictureMapping",3,"1",3,"IntroPictureMapping","advancementZone","continue_keyboard","83690.4010096116",NA,NA,"",NA,"SportenPictureMapping"
"1",1604575921511,1,"05/11/2020 12:32:01","BLIND",6921750,NA,"complete",NA,"5fa3e215f917c101a78f2fcd","computer","Desktop or Laptop","Windows 10","Chrome 86.0.4240.183","1366x768","1366x667","PictureMapping","AliceSportIntroPictureMapping","",NA,"BEGIN TASK",NA,"","","","",NA,NA,"",NA,""
"10",1604576158128,1,"05/11/2020 12:35:58","BLIND",6921750,NA,"complete",NA,"5fa3e215f917c101a78f2fcd","computer","Desktop or Laptop","Windows 10","Chrome 86.0.4240.183","1366x768","1366x667","PictureMapping","AliceSportIntroPictureMapping","AliceSportIntroPictureMapping",3,"1",5,"JoL2","Four","response_button_text","83690.4010096116",NA,NA,"4",1,"SportenPictureMapping"
"11",1604576160400,1,"05/11/2020 12:36:00","BLIND",6921750,NA,"complete",NA,"5fa3e215f917c101a78f2fcd","computer","Desktop or Laptop","Windows 10","Chrome 86.0.4240.183","1366x768","1366x667","PictureMapping","AliceSportIntroPictureMapping","AliceSportIntroPictureMapping",3,"1",6,"InstructieToets","advancementZone","continue_button","83690.4010096116",NA,NA,"",NA,"SportenPictureMapping"
"12",1604576243105,1,"05/11/2020 12:37:23","BLIND",6921750,NA,"complete",NA,"5fa3e215f917c101a78f2fcd","computer","Desktop or Laptop","Windows 10","Chrome 86.0.4240.183","1366x768","1366x667","PictureMapping","AliceSportIntroPictureMapping","AliceSportIntroPictureMapping",3,"1",7,"Test","buttonA","response_text_area","83690.4010096116",NA,NA,"zCEFDUhc",NA,"SportenPictureMapping"
"13",1604576243106,1,"05/11/2020 12:37:23","BLIND",6921750,NA,"complete",NA,"5fa3e215f917c101a78f2fcd","computer","Desktop or Laptop","Windows 10","Chrome 86.0.4240.183","1366x768","1366x667","PictureMapping","AliceSportIntroPictureMapping","AliceSportIntroPictureMapping",3,"1",7,"Test","buttonB","continue_button","83690.4010096116",NA,NA,"",NA,"SportenPictureMapping"
"14",1604576244335,1,"05/11/2020 12:37:24","BLIND",6921750,NA,"complete",NA,"5fa3e215f917c101a78f2fcd","computer","Desktop or Laptop","Windows 10","Chrome 86.0.4240.183","1366x768","1366x667","PictureMapping","AliceSportIntroPictureMapping","AliceSportIntroPictureMapping",4,"1",1,"Screen 1","advancementZone","continue_button","83690.4010096116",NA,NA,"",NA,"ReadyForExperiment"
"15",1604576244340,1,"05/11/2020 12:37:24","BLIND",6921750,NA,"complete",NA,"5fa3e215f917c101a78f2fcd","computer","Desktop or Laptop","Windows 10","Chrome 86.0.4240.183","1366x768","1366x667","PictureMapping","AliceSportIntroPictureMapping","",NA,"END TASK",NA,"","","","322829",NA,NA,"",NA,""
"2",1604575926386,1,"05/11/2020 12:32:06","BLIND",6921750,NA,"complete",NA,"5fa3e215f917c101a78f2fcd","computer","Desktop or Laptop","Windows 10","Chrome 86.0.4240.183","1366x768","1366x667","PictureMapping","AliceSportIntroPictureMapping","AliceSportIntroPictureMapping",1,"1",1,"Screen 1","advancementZone","continue_button","83690.4010096116",NA,NA,"",NA,"IntroAlice"
"3",1604576068130,1,"05/11/2020 12:34:28","BLIND",6921750,NA,"complete",NA,"5fa3e215f917c101a78f2fcd","computer","Desktop or Laptop","Windows 10","Chrome 86.0.4240.183","1366x768","1366x667","PictureMapping","AliceSportIntroPictureMapping","AliceSportIntroPictureMapping",2,"1",1,"Screen 1","content","content_video","83690.4010096116",NA,NA,"",NA,"AlicePictureMappingIntroVid"
"4",1604576070983,1,"05/11/2020 12:34:30","BLIND",6921750,NA,"complete",NA,"5fa3e215f917c101a78f2fcd","computer","Desktop or Laptop","Windows 10","Chrome 86.0.4240.183","1366x768","1366x667","PictureMapping","AliceSportIntroPictureMapping","AliceSportIntroPictureMapping",2,"1",2,"Klaar4Sporten","advancementZone","continue_button","83690.4010096116",NA,NA,"",NA,"AlicePictureMappingIntroVid"
"5",1604576099771,1,"05/11/2020 12:34:59","BLIND",6921750,NA,"complete",NA,"5fa3e215f917c101a78f2fcd","computer","Desktop or Laptop","Windows 10","Chrome 86.0.4240.183","1366x768","1366x667","PictureMapping","AliceSportIntroPictureMapping","AliceSportIntroPictureMapping",3,"1",1,"Text","advancementZone","continue_button","83690.4010096116",NA,NA,"",NA,"SportenPictureMapping"
"6",1604576105124,1,"05/11/2020 12:35:05","BLIND",6921750,NA,"complete",NA,"5fa3e215f917c101a78f2fcd","computer","Desktop or Laptop","Windows 10","Chrome 86.0.4240.183","1366x768","1366x667","PictureMapping","AliceSportIntroPictureMapping","AliceSportIntroPictureMapping",3,"1",2,"JoL1","Four","response_button_text","83690.4010096116",NA,NA,"4",1,"SportenPictureMapping"
"7",1604576110741,1,"05/11/2020 12:35:10","BLIND",6921750,NA,"complete",NA,"5fa3e215f917c101a78f2fcd","computer","Desktop or Laptop","Windows 10","Chrome 86.0.4240.183","1366x768","1366x667","PictureMapping","AliceSportIntroPictureMapping","AliceSportIntroPictureMapping",3,"1",3,"IntroPictureMapping","advancementZone","continue_keyboard","83690.4010096116",NA,NA,"",NA,"SportenPictureMapping"
"8",1604576153418,1,"05/11/2020 12:35:53","BLIND",6921750,NA,"complete",NA,"5fa3e215f917c101a78f2fcd","computer","Desktop or Laptop","Windows 10","Chrome 86.0.4240.183","1366x768","1366x667","PictureMapping","AliceSportIntroPictureMapping","AliceSportIntroPictureMapping",3,"1",4,"PictureMapping","PictureMappingResponse","response_text_entry","83690.4010096116",NA,NA,"2",NA,"SportenPictureMapping"
"9",1604576153420,1,"05/11/2020 12:35:53","BLIND",6921750,NA,"complete",NA,"5fa3e215f917c101a78f2fcd","computer","Desktop or Laptop","Windows 10","Chrome 86.0.4240.183","1366x768","1366x667","PictureMapping","AliceSportIntroPictureMapping","AliceSportIntroPictureMapping",3,"1",4,"PictureMapping","Zone3","continue_button","83690.4010096116",NA,NA,"",NA,"SportenPictureMapping"
"1",1604933933555,1,"09/11/2020 15:58:53","BLIND",7766512,NA,"complete",NA,"5fa958efd3f4150bf2e1a4de","computer","Desktop or Laptop","Mac OS 10.15.4","Chrome 86.0.4240.111","1440x900","1440x750","PictureMapping","AliceSportIntroPictureMapping","",NA,"BEGIN TASK",NA,"","","","",NA,NA,"",NA,""
"10",1604934165704,1,"09/11/2020 16:02:45","BLIND",7766512,NA,"complete",NA,"5fa958efd3f4150bf2e1a4de","computer","Desktop or Laptop","Mac OS 10.15.4","Chrome 86.0.4240.111","1440x900","1440x750","PictureMapping","AliceSportIntroPictureMapping","AliceSportIntroPictureMapping",3,"1",5,"JoL2","Three","response_button_text","83690.4010096116",NA,NA,"4",1,"SportenPictureMapping"
"11",1604934168843,1,"09/11/2020 16:02:48","BLIND",7766512,NA,"complete",NA,"5fa958efd3f4150bf2e1a4de","computer","Desktop or Laptop","Mac OS 10.15.4","Chrome 86.0.4240.111","1440x900","1440x750","PictureMapping","AliceSportIntroPictureMapping","AliceSportIntroPictureMapping",3,"1",6,"InstructieToets","advancementZone","continue_button","83690.4010096116",NA,NA,"",NA,"SportenPictureMapping"
"12",1604934243167,1,"09/11/2020 16:04:03","BLIND",7766512,NA,"complete",NA,"5fa958efd3f4150bf2e1a4de","computer","Desktop or Laptop","Mac OS 10.15.4","Chrome 86.0.4240.111","1440x900","1440x750","PictureMapping","AliceSportIntroPictureMapping","AliceSportIntroPictureMapping",3,"1",7,"Test","buttonA","response_text_area","83690.4010096116",NA,NA,"sOdC",NA,"SportenPictureMapping"
"13",1604934243169,1,"09/11/2020 16:04:03","BLIND",7766512,NA,"complete",NA,"5fa958efd3f4150bf2e1a4de","computer","Desktop or Laptop","Mac OS 10.15.4","Chrome 86.0.4240.111","1440x900","1440x750","PictureMapping","AliceSportIntroPictureMapping","AliceSportIntroPictureMapping",3,"1",7,"Test","buttonB","continue_button","83690.4010096116",NA,NA,"",NA,"SportenPictureMapping"
"14",1604934246979,1,"09/11/2020 16:04:06","BLIND",7766512,NA,"complete",NA,"5fa958efd3f4150bf2e1a4de","computer","Desktop or Laptop","Mac OS 10.15.4","Chrome 86.0.4240.111","1440x900","1440x750","PictureMapping","AliceSportIntroPictureMapping","AliceSportIntroPictureMapping",4,"1",1,"Screen 1","advancementZone","continue_button","83690.4010096116",NA,NA,"",NA,"ReadyForExperiment"
"15",1604934246983,1,"09/11/2020 16:04:06","BLIND",7766512,NA,"complete",NA,"5fa958efd3f4150bf2e1a4de","computer","Desktop or Laptop","Mac OS 10.15.4","Chrome 86.0.4240.111","1440x900","1440x750","PictureMapping","AliceSportIntroPictureMapping","",NA,"END TASK",NA,"","","","313428",NA,NA,"",NA,""
"2",1604933936798,1,"09/11/2020 15:58:56","BLIND",7766512,NA,"complete",NA,"5fa958efd3f4150bf2e1a4de","computer","Desktop or Laptop","Mac OS 10.15.4","Chrome 86.0.4240.111","1440x900","1440x750","PictureMapping","AliceSportIntroPictureMapping","AliceSportIntroPictureMapping",1,"1",1,"Screen 1","advancementZone","continue_button","83690.4010096116",NA,NA,"",NA,"IntroAlice"
"3",1604934078433,1,"09/11/2020 16:01:18","BLIND",7766512,NA,"complete",NA,"5fa958efd3f4150bf2e1a4de","computer","Desktop or Laptop","Mac OS 10.15.4","Chrome 86.0.4240.111","1440x900","1440x750","PictureMapping","AliceSportIntroPictureMapping","AliceSportIntroPictureMapping",2,"1",1,"Screen 1","content","content_video","83690.4010096116",NA,NA,"",NA,"AlicePictureMappingIntroVid"
"4",1604934080637,1,"09/11/2020 16:01:20","BLIND",7766512,NA,"complete",NA,"5fa958efd3f4150bf2e1a4de","computer","Desktop or Laptop","Mac OS 10.15.4","Chrome 86.0.4240.111","1440x900","1440x750","PictureMapping","AliceSportIntroPictureMapping","AliceSportIntroPictureMapping",2,"1",2,"Klaar4Sporten","advancementZone","continue_button","83690.4010096116",NA,NA,"",NA,"AlicePictureMappingIntroVid"
"5",1604934117445,1,"09/11/2020 16:01:57","BLIND",7766512,NA,"complete",NA,"5fa958efd3f4150bf2e1a4de","computer","Desktop or Laptop","Mac OS 10.15.4","Chrome 86.0.4240.111","1440x900","1440x750","PictureMapping","AliceSportIntroPictureMapping","AliceSportIntroPictureMapping",3,"1",1,"Text","advancementZone","continue_button","83690.4010096116",NA,NA,"",NA,"SportenPictureMapping"
"6",1604934121142,1,"09/11/2020 16:02:01","BLIND",7766512,NA,"complete",NA,"5fa958efd3f4150bf2e1a4de","computer","Desktop or Laptop","Mac OS 10.15.4","Chrome 86.0.4240.111","1440x900","1440x750","PictureMapping","AliceSportIntroPictureMapping","AliceSportIntroPictureMapping",3,"1",2,"JoL1","Three","response_button_text","83690.4010096116",NA,NA,"4",1,"SportenPictureMapping"
"7",1604934125590,1,"09/11/2020 16:02:05","BLIND",7766512,NA,"complete",NA,"5fa958efd3f4150bf2e1a4de","computer","Desktop or Laptop","Mac OS 10.15.4","Chrome 86.0.4240.111","1440x900","1440x750","PictureMapping","AliceSportIntroPictureMapping","AliceSportIntroPictureMapping",3,"1",3,"IntroPictureMapping","advancementZone","continue_keyboard","83690.4010096116",NA,NA,"",NA,"SportenPictureMapping"
"8",1604934163634,1,"09/11/2020 16:02:43","BLIND",7766512,NA,"complete",NA,"5fa958efd3f4150bf2e1a4de","computer","Desktop or Laptop","Mac OS 10.15.4","Chrome 86.0.4240.111","1440x900","1440x750","PictureMapping","AliceSportIntroPictureMapping","AliceSportIntroPictureMapping",3,"1",4,"PictureMapping","PictureMappingResponse","response_text_entry","83690.4010096116",NA,NA,"2",NA,"SportenPictureMapping"
"9",1604934163635,1,"09/11/2020 16:02:43","BLIND",7766512,NA,"complete",NA,"5fa958efd3f4150bf2e1a4de","computer","Desktop or Laptop","Mac OS 10.15.4","Chrome 86.0.4240.111","1440x900","1440x750","PictureMapping","AliceSportIntroPictureMapping","AliceSportIntroPictureMapping",3,"1",4,"PictureMapping","Zone3","continue_button","83690.4010096116",NA,NA,"",NA,"SportenPictureMapping"
"1",1604074753800,1,"30/10/2020 17:19:13","BLIND",8228734,NA,"complete",NA,"5f9c2c48517e0d076556d340","computer","Desktop or Laptop","Windows 10","Chrome 86.0.4240.111","1536x864","1536x754","PictureMapping","AliceSportIntroPictureMapping","",NA,"BEGIN TASK",NA,"","","","",NA,NA,"",NA,""
"10",1604075017705,1,"30/10/2020 17:23:37","BLIND",8228734,NA,"complete",NA,"5f9c2c48517e0d076556d340","computer","Desktop or Laptop","Windows 10","Chrome 86.0.4240.111","1536x864","1536x754","PictureMapping","AliceSportIntroPictureMapping","AliceSportIntroPictureMapping",3,"1",4,"PictureMapping","Zone3","continue_button","83690.4010096116",NA,NA,"",NA,"SportenPictureMapping"
"11",1604075021526,1,"30/10/2020 17:23:41","BLIND",8228734,NA,"complete",NA,"5f9c2c48517e0d076556d340","computer","Desktop or Laptop","Windows 10","Chrome 86.0.4240.111","1536x864","1536x754","PictureMapping","AliceSportIntroPictureMapping","AliceSportIntroPictureMapping",3,"1",5,"JoL2","Two","response_button_text","83690.4010096116",NA,NA,"4",1,"SportenPictureMapping"
"12",1604075023751,1,"30/10/2020 17:23:43","BLIND",8228734,NA,"complete",NA,"5f9c2c48517e0d076556d340","computer","Desktop or Laptop","Windows 10","Chrome 86.0.4240.111","1536x864","1536x754","PictureMapping","AliceSportIntroPictureMapping","AliceSportIntroPictureMapping",3,"1",6,"InstructieToets","advancementZone","continue_button","83690.4010096116",NA,NA,"",NA,"SportenPictureMapping"
"13",1604075098816,1,"30/10/2020 17:24:58","BLIND",8228734,NA,"complete",NA,"5f9c2c48517e0d076556d340","computer","Desktop or Laptop","Windows 10","Chrome 86.0.4240.111","1536x864","1536x754","PictureMapping","AliceSportIntroPictureMapping","AliceSportIntroPictureMapping",3,"1",7,"Test","buttonA","response_text_area","83690.4010096116",NA,NA,"vEEhO13RW",NA,"SportenPictureMapping"
"14",1604075098817,1,"30/10/2020 17:24:58","BLIND",8228734,NA,"complete",NA,"5f9c2c48517e0d076556d340","computer","Desktop or Laptop","Windows 10","Chrome 86.0.4240.111","1536x864","1536x754","PictureMapping","AliceSportIntroPictureMapping","AliceSportIntroPictureMapping",3,"1",7,"Test","buttonB","continue_button","83690.4010096116",NA,NA,"",NA,"SportenPictureMapping"
"15",1604075100517,1,"30/10/2020 17:25:00","BLIND",8228734,NA,"complete",NA,"5f9c2c48517e0d076556d340","computer","Desktop or Laptop","Windows 10","Chrome 86.0.4240.111","1536x864","1536x754","PictureMapping","AliceSportIntroPictureMapping","AliceSportIntroPictureMapping",4,"1",1,"Screen 1","advancementZone","continue_button","83690.4010096116",NA,NA,"",NA,"ReadyForExperiment"
"16",1604075100520,1,"30/10/2020 17:25:00","BLIND",8228734,NA,"complete",NA,"5f9c2c48517e0d076556d340","computer","Desktop or Laptop","Windows 10","Chrome 86.0.4240.111","1536x864","1536x754","PictureMapping","AliceSportIntroPictureMapping","",NA,"END TASK",NA,"","","","346720",NA,NA,"",NA,""
"2",1604074757536,1,"30/10/2020 17:19:17","BLIND",8228734,NA,"complete",NA,"5f9c2c48517e0d076556d340","computer","Desktop or Laptop","Windows 10","Chrome 86.0.4240.111","1536x864","1536x754","PictureMapping","AliceSportIntroPictureMapping","AliceSportIntroPictureMapping",1,"1",1,"Screen 1","advancementZone","continue_button","83690.4010096116",NA,NA,"",NA,"IntroAlice"
"3",1604074768250,1,"30/10/2020 17:19:28","BLIND",8228734,NA,"complete",NA,"5f9c2c48517e0d076556d340","computer","Desktop or Laptop","Windows 10","Chrome 86.0.4240.111","1536x864","1536x754","PictureMapping","AliceSportIntroPictureMapping","",NA,"",NA,"","","","83690.4010096116",NA,NA,"A loading delay of more than 10s was detected.",NA,""
"4",1604074910326,1,"30/10/2020 17:21:50","BLIND",8228734,NA,"complete",NA,"5f9c2c48517e0d076556d340","computer","Desktop or Laptop","Windows 10","Chrome 86.0.4240.111","1536x864","1536x754","PictureMapping","AliceSportIntroPictureMapping","AliceSportIntroPictureMapping",2,"1",1,"Screen 1","content","content_video","83690.4010096116",NA,NA,"",NA,"AlicePictureMappingIntroVid"
"5",1604074926327,1,"30/10/2020 17:22:06","BLIND",8228734,NA,"complete",NA,"5f9c2c48517e0d076556d340","computer","Desktop or Laptop","Windows 10","Chrome 86.0.4240.111","1536x864","1536x754","PictureMapping","AliceSportIntroPictureMapping","AliceSportIntroPictureMapping",2,"1",2,"Klaar4Sporten","advancementZone","continue_button","83690.4010096116",NA,NA,"",NA,"AlicePictureMappingIntroVid"
"6",1604074959591,1,"30/10/2020 17:22:39","BLIND",8228734,NA,"complete",NA,"5f9c2c48517e0d076556d340","computer","Desktop or Laptop","Windows 10","Chrome 86.0.4240.111","1536x864","1536x754","PictureMapping","AliceSportIntroPictureMapping","AliceSportIntroPictureMapping",3,"1",1,"Text","advancementZone","continue_button","83690.4010096116",NA,NA,"",NA,"SportenPictureMapping"
"7",1604074961288,1,"30/10/2020 17:22:41","BLIND",8228734,NA,"complete",NA,"5f9c2c48517e0d076556d340","computer","Desktop or Laptop","Windows 10","Chrome 86.0.4240.111","1536x864","1536x754","PictureMapping","AliceSportIntroPictureMapping","AliceSportIntroPictureMapping",3,"1",2,"JoL1","Two","response_button_text","83690.4010096116",NA,NA,"4",1,"SportenPictureMapping"
"8",1604074973994,1,"30/10/2020 17:22:53","BLIND",8228734,NA,"complete",NA,"5f9c2c48517e0d076556d340","computer","Desktop or Laptop","Windows 10","Chrome 86.0.4240.111","1536x864","1536x754","PictureMapping","AliceSportIntroPictureMapping","AliceSportIntroPictureMapping",3,"1",3,"IntroPictureMapping","advancementZone","continue_keyboard","83690.4010096116",NA,NA,"",NA,"SportenPictureMapping"
"9",1604075017704,1,"30/10/2020 17:23:37","BLIND",8228734,NA,"complete",NA,"5f9c2c48517e0d076556d340","computer","Desktop or Laptop","Windows 10","Chrome 86.0.4240.111","1536x864","1536x754","PictureMapping","AliceSportIntroPictureMapping","AliceSportIntroPictureMapping",3,"1",4,"PictureMapping","PictureMappingResponse","response_text_entry","83690.4010096116",NA,NA,"1",NA,"SportenPictureMapping"
"1",1604177800933,1,"31/10/2020 21:56:40","BLIND",9055789,NA,"complete",NA,"5f9dcf5b36d73434649ee920","computer","Desktop or Laptop","Mac OS 10.15.7","Chrome 86.0.4240.111","1440x900","1440x789","PictureMapping","AliceSportIntroPictureMapping","",NA,"BEGIN TASK",NA,"","","","",NA,NA,"",NA,""
"10",1604178105076,1,"31/10/2020 22:01:45","BLIND",9055789,NA,"complete",NA,"5f9dcf5b36d73434649ee920","computer","Desktop or Laptop","Mac OS 10.15.7","Chrome 86.0.4240.111","1440x900","1440x789","PictureMapping","AliceSportIntroPictureMapping","AliceSportIntroPictureMapping",3,"1",4,"PictureMapping","Zone3","continue_button","83690.4010096116",NA,NA,"",NA,"SportenPictureMapping"
"11",1604178108058,1,"31/10/2020 22:01:48","BLIND",9055789,NA,"complete",NA,"5f9dcf5b36d73434649ee920","computer","Desktop or Laptop","Mac OS 10.15.7","Chrome 86.0.4240.111","1440x900","1440x789","PictureMapping","AliceSportIntroPictureMapping","AliceSportIntroPictureMapping",3,"1",5,"JoL2","Three","response_button_text","83690.4010096116",NA,NA,"4",1,"SportenPictureMapping"
"12",1604178110072,1,"31/10/2020 22:01:50","BLIND",9055789,NA,"complete",NA,"5f9dcf5b36d73434649ee920","computer","Desktop or Laptop","Mac OS 10.15.7","Chrome 86.0.4240.111","1440x900","1440x789","PictureMapping","AliceSportIntroPictureMapping","AliceSportIntroPictureMapping",3,"1",6,"InstructieToets","advancementZone","continue_button","83690.4010096116",NA,NA,"",NA,"SportenPictureMapping"
"13",1604178189183,1,"31/10/2020 22:03:09","BLIND",9055789,NA,"complete",NA,"5f9dcf5b36d73434649ee920","computer","Desktop or Laptop","Mac OS 10.15.7","Chrome 86.0.4240.111","1440x900","1440x789","PictureMapping","AliceSportIntroPictureMapping","AliceSportIntroPictureMapping",3,"1",7,"Test","buttonA","response_text_area","83690.4010096116",NA,NA,"bg",NA,"SportenPictureMapping"
"14",1604178189191,1,"31/10/2020 22:03:09","BLIND",9055789,NA,"complete",NA,"5f9dcf5b36d73434649ee920","computer","Desktop or Laptop","Mac OS 10.15.7","Chrome 86.0.4240.111","1440x900","1440x789","PictureMapping","AliceSportIntroPictureMapping","AliceSportIntroPictureMapping",3,"1",7,"Test","buttonB","continue_button","83690.4010096116",NA,NA,"",NA,"SportenPictureMapping"
"15",1604178190944,1,"31/10/2020 22:03:10","BLIND",9055789,NA,"complete",NA,"5f9dcf5b36d73434649ee920","computer","Desktop or Laptop","Mac OS 10.15.7","Chrome 86.0.4240.111","1440x900","1440x789","PictureMapping","AliceSportIntroPictureMapping","AliceSportIntroPictureMapping",4,"1",1,"Screen 1","advancementZone","continue_button","83690.4010096116",NA,NA,"",NA,"ReadyForExperiment"
"16",1604178190948,1,"31/10/2020 22:03:10","BLIND",9055789,NA,"complete",NA,"5f9dcf5b36d73434649ee920","computer","Desktop or Laptop","Mac OS 10.15.7","Chrome 86.0.4240.111","1440x900","1440x789","PictureMapping","AliceSportIntroPictureMapping","",NA,"END TASK",NA,"","","","390015",NA,NA,"",NA,""
"2",1604177805884,1,"31/10/2020 21:56:45","BLIND",9055789,NA,"complete",NA,"5f9dcf5b36d73434649ee920","computer","Desktop or Laptop","Mac OS 10.15.7","Chrome 86.0.4240.111","1440x900","1440x789","PictureMapping","AliceSportIntroPictureMapping","AliceSportIntroPictureMapping",1,"1",1,"Screen 1","advancementZone","continue_button","83690.4010096116",NA,NA,"",NA,"IntroAlice"
"3",1604177815892,1,"31/10/2020 21:56:55","BLIND",9055789,NA,"complete",NA,"5f9dcf5b36d73434649ee920","computer","Desktop or Laptop","Mac OS 10.15.7","Chrome 86.0.4240.111","1440x900","1440x789","PictureMapping","AliceSportIntroPictureMapping","",NA,"",NA,"","","","83690.4010096116",NA,NA,"A loading delay of more than 10s was detected.",NA,""
"4",1604177999456,1,"31/10/2020 21:59:59","BLIND",9055789,NA,"complete",NA,"5f9dcf5b36d73434649ee920","computer","Desktop or Laptop","Mac OS 10.15.7","Chrome 86.0.4240.111","1440x900","1440x789","PictureMapping","AliceSportIntroPictureMapping","AliceSportIntroPictureMapping",2,"1",1,"Screen 1","content","content_video","83690.4010096116",NA,NA,"",NA,"AlicePictureMappingIntroVid"
"5",1604178001459,1,"31/10/2020 22:00:01","BLIND",9055789,NA,"complete",NA,"5f9dcf5b36d73434649ee920","computer","Desktop or Laptop","Mac OS 10.15.7","Chrome 86.0.4240.111","1440x900","1440x789","PictureMapping","AliceSportIntroPictureMapping","AliceSportIntroPictureMapping",2,"1",2,"Klaar4Sporten","advancementZone","continue_button","83690.4010096116",NA,NA,"",NA,"AlicePictureMappingIntroVid"
"6",1604178025474,1,"31/10/2020 22:00:25","BLIND",9055789,NA,"complete",NA,"5f9dcf5b36d73434649ee920","computer","Desktop or Laptop","Mac OS 10.15.7","Chrome 86.0.4240.111","1440x900","1440x789","PictureMapping","AliceSportIntroPictureMapping","AliceSportIntroPictureMapping",3,"1",1,"Text","advancementZone","continue_button","83690.4010096116",NA,NA,"",NA,"SportenPictureMapping"
"7",1604178029665,1,"31/10/2020 22:00:29","BLIND",9055789,NA,"complete",NA,"5f9dcf5b36d73434649ee920","computer","Desktop or Laptop","Mac OS 10.15.7","Chrome 86.0.4240.111","1440x900","1440x789","PictureMapping","AliceSportIntroPictureMapping","AliceSportIntroPictureMapping",3,"1",2,"JoL1","Three","response_button_text","83690.4010096116",NA,NA,"4",1,"SportenPictureMapping"
"8",1604178031691,1,"31/10/2020 22:00:31","BLIND",9055789,NA,"complete",NA,"5f9dcf5b36d73434649ee920","computer","Desktop or Laptop","Mac OS 10.15.7","Chrome 86.0.4240.111","1440x900","1440x789","PictureMapping","AliceSportIntroPictureMapping","AliceSportIntroPictureMapping",3,"1",3,"IntroPictureMapping","advancementZone","continue_keyboard","83690.4010096116",NA,NA,"",NA,"SportenPictureMapping"
"9",1604178105074,1,"31/10/2020 22:01:45","BLIND",9055789,NA,"complete",NA,"5f9dcf5b36d73434649ee920","computer","Desktop or Laptop","Mac OS 10.15.7","Chrome 86.0.4240.111","1440x900","1440x789","PictureMapping","AliceSportIntroPictureMapping","AliceSportIntroPictureMapping",3,"1",4,"PictureMapping","PictureMappingResponse","response_text_entry","83690.4010096116",NA,NA,"1",NA,"SportenPictureMapping"
"1",1604097985990,1,"30/10/2020 23:46:25","BLIND",9519059,NA,"complete",NA,"5f9c976f7a1d98179cfe387a","computer","Desktop or Laptop","Windows 10","Chrome 86.0.4240.111","1366x768","1366x657","PictureMapping","AliceSportIntroPictureMapping","",NA,"BEGIN TASK",NA,"","","","",NA,NA,"",NA,""
"10",1604098233358,1,"30/10/2020 23:50:33","BLIND",9519059,NA,"complete",NA,"5f9c976f7a1d98179cfe387a","computer","Desktop or Laptop","Windows 10","Chrome 86.0.4240.111","1366x768","1366x657","PictureMapping","AliceSportIntroPictureMapping","AliceSportIntroPictureMapping",3,"1",5,"JoL2","Three","response_button_text","83690.4010096116",NA,NA,"4",1,"SportenPictureMapping"
"11",1604098234966,1,"30/10/2020 23:50:34","BLIND",9519059,NA,"complete",NA,"5f9c976f7a1d98179cfe387a","computer","Desktop or Laptop","Windows 10","Chrome 86.0.4240.111","1366x768","1366x657","PictureMapping","AliceSportIntroPictureMapping","AliceSportIntroPictureMapping",3,"1",6,"InstructieToets","advancementZone","continue_button","83690.4010096116",NA,NA,"",NA,"SportenPictureMapping"
"12",1604098377228,1,"30/10/2020 23:52:57","BLIND",9519059,NA,"complete",NA,"5f9c976f7a1d98179cfe387a","computer","Desktop or Laptop","Windows 10","Chrome 86.0.4240.111","1366x768","1366x657","PictureMapping","AliceSportIntroPictureMapping","AliceSportIntroPictureMapping",3,"1",7,"Test","buttonA","response_text_area","83690.4010096116",NA,NA,"9k",NA,"SportenPictureMapping"
"13",1604098377230,1,"30/10/2020 23:52:57","BLIND",9519059,NA,"complete",NA,"5f9c976f7a1d98179cfe387a","computer","Desktop or Laptop","Windows 10","Chrome 86.0.4240.111","1366x768","1366x657","PictureMapping","AliceSportIntroPictureMapping","AliceSportIntroPictureMapping",3,"1",7,"Test","buttonB","continue_button","83690.4010096116",NA,NA,"",NA,"SportenPictureMapping"
"14",1604098379106,1,"30/10/2020 23:52:59","BLIND",9519059,NA,"complete",NA,"5f9c976f7a1d98179cfe387a","computer","Desktop or Laptop","Windows 10","Chrome 86.0.4240.111","1366x768","1366x657","PictureMapping","AliceSportIntroPictureMapping","AliceSportIntroPictureMapping",4,"1",1,"Screen 1","advancementZone","continue_button","83690.4010096116",NA,NA,"",NA,"ReadyForExperiment"
"15",1604098379109,1,"30/10/2020 23:52:59","BLIND",9519059,NA,"complete",NA,"5f9c976f7a1d98179cfe387a","computer","Desktop or Laptop","Windows 10","Chrome 86.0.4240.111","1366x768","1366x657","PictureMapping","AliceSportIntroPictureMapping","",NA,"END TASK",NA,"","","","393120",NA,NA,"",NA,""
"2",1604097989375,1,"30/10/2020 23:46:29","BLIND",9519059,NA,"complete",NA,"5f9c976f7a1d98179cfe387a","computer","Desktop or Laptop","Windows 10","Chrome 86.0.4240.111","1366x768","1366x657","PictureMapping","AliceSportIntroPictureMapping","AliceSportIntroPictureMapping",1,"1",1,"Screen 1","advancementZone","continue_button","83690.4010096116",NA,NA,"",NA,"IntroAlice"
"3",1604098133079,1,"30/10/2020 23:48:53","BLIND",9519059,NA,"complete",NA,"5f9c976f7a1d98179cfe387a","computer","Desktop or Laptop","Windows 10","Chrome 86.0.4240.111","1366x768","1366x657","PictureMapping","AliceSportIntroPictureMapping","AliceSportIntroPictureMapping",2,"1",1,"Screen 1","content","content_video","83690.4010096116",NA,NA,"",NA,"AlicePictureMappingIntroVid"
"4",1604098135941,1,"30/10/2020 23:48:55","BLIND",9519059,NA,"complete",NA,"5f9c976f7a1d98179cfe387a","computer","Desktop or Laptop","Windows 10","Chrome 86.0.4240.111","1366x768","1366x657","PictureMapping","AliceSportIntroPictureMapping","AliceSportIntroPictureMapping",2,"1",2,"Klaar4Sporten","advancementZone","continue_button","83690.4010096116",NA,NA,"",NA,"AlicePictureMappingIntroVid"
"5",1604098175944,1,"30/10/2020 23:49:35","BLIND",9519059,NA,"complete",NA,"5f9c976f7a1d98179cfe387a","computer","Desktop or Laptop","Windows 10","Chrome 86.0.4240.111","1366x768","1366x657","PictureMapping","AliceSportIntroPictureMapping","AliceSportIntroPictureMapping",3,"1",1,"Text","advancementZone","continue_button","83690.4010096116",NA,NA,"",NA,"SportenPictureMapping"
"6",1604098178001,1,"30/10/2020 23:49:38","BLIND",9519059,NA,"complete",NA,"5f9c976f7a1d98179cfe387a","computer","Desktop or Laptop","Windows 10","Chrome 86.0.4240.111","1366x768","1366x657","PictureMapping","AliceSportIntroPictureMapping","AliceSportIntroPictureMapping",3,"1",2,"JoL1","Three","response_button_text","83690.4010096116",NA,NA,"4",1,"SportenPictureMapping"
"7",1604098183549,1,"30/10/2020 23:49:43","BLIND",9519059,NA,"complete",NA,"5f9c976f7a1d98179cfe387a","computer","Desktop or Laptop","Windows 10","Chrome 86.0.4240.111","1366x768","1366x657","PictureMapping","AliceSportIntroPictureMapping","AliceSportIntroPictureMapping",3,"1",3,"IntroPictureMapping","advancementZone","continue_keyboard","83690.4010096116",NA,NA,"",NA,"SportenPictureMapping"
"8",1604098231556,1,"30/10/2020 23:50:31","BLIND",9519059,NA,"complete",NA,"5f9c976f7a1d98179cfe387a","computer","Desktop or Laptop","Windows 10","Chrome 86.0.4240.111","1366x768","1366x657","PictureMapping","AliceSportIntroPictureMapping","AliceSportIntroPictureMapping",3,"1",4,"PictureMapping","PictureMappingResponse","response_text_entry","83690.4010096116",NA,NA,"2",NA,"SportenPictureMapping"
"9",1604098231558,1,"30/10/2020 23:50:31","BLIND",9519059,NA,"complete",NA,"5f9c976f7a1d98179cfe387a","computer","Desktop or Laptop","Windows 10","Chrome 86.0.4240.111","1366x768","1366x657","PictureMapping","AliceSportIntroPictureMapping","AliceSportIntroPictureMapping",3,"1",4,"PictureMapping","Zone3","continue_button","83690.4010096116",NA,NA,"",NA,"SportenPictureMapping"
"END OF FILE",NA,NA,"","",NA,NA,"",NA,"","","","","","","","","","",NA,"",NA,"","","","83690.4010096116",NA,NA,"",NA,""
"END OF FILE",NA,NA,"","",NA,NA,"",NA,"","","","","","","","","","",NA,"",NA,"","","","",NA,NA,"",NA,""
