"Event_Index","Local_Timestamp","Local_Timezone","Local_Date","Participant_Public_ID","Participant_Private_ID","Participant_Starting_Group","Participant_Status","Participant_Completion_Code","Participant_External_Session_ID","Participant_Device_Type","Participant_Device","Participant_OS","Participant_Browser","Participant_Monitor_Size","Participant_Viewport_Size","randomiser_81rl","Spreadsheet","Spreadsheet_Name","Spreadsheet_Row","Trial_Number","Screen_Number","Screen_Name","Zone_Name","Zone_Type","Reaction_Time","Reaction_Onset","Response_Type","Response","Attempt","display"
"1",1604403793886,1,"03/11/2020 12:43:13","BLIND",1683571,NA,"complete",NA,"5fa141cd0caca41eed982b1e","computer","Desktop or Laptop","Windows 10","Chrome 86.0.4240.111","1280x720","1280x578","DiagramFeedback","AliceDiagramFeedback","",NA,"BEGIN TASK",NA,"","","","",NA,NA,"",NA,""
"2",1604403798268,1,"03/11/2020 12:43:18","BLIND",1683571,NA,"complete",NA,"5fa141cd0caca41eed982b1e","computer","Desktop or Laptop","Windows 10","Chrome 86.0.4240.111","1280x720","1280x578","DiagramFeedback","AliceDiagramFeedback","AliceDiagramFeedback",1,"1",1,"Screen 1","advancementZone","continue_button",NA,NA,NA,"",NA,"IntroAlice"
"3",1604403808281,1,"03/11/2020 12:43:28","BLIND",1683571,NA,"complete",NA,"5fa141cd0caca41eed982b1e","computer","Desktop or Laptop","Windows 10","Chrome 86.0.4240.111","1280x720","1280x578","DiagramFeedback","AliceDiagramFeedback","",NA,"",NA,"","","",NA,NA,NA,"A loading delay of more than 10s was detected.",NA,""
"4",1604403983853,1,"03/11/2020 12:46:23","BLIND",1683571,NA,"complete",NA,"5fa141cd0caca41eed982b1e","computer","Desktop or Laptop","Windows 10","Chrome 86.0.4240.111","1280x720","1280x578","DiagramFeedback","AliceDiagramFeedback","AliceDiagramFeedback",2,"1",1,"Screen 2","content","content_video",NA,NA,NA,"",NA,"AliceDiagramFeedbackIntroVid"
"5",1604403987956,1,"03/11/2020 12:46:27","BLIND",1683571,NA,"complete",NA,"5fa141cd0caca41eed982b1e","computer","Desktop or Laptop","Windows 10","Chrome 86.0.4240.111","1280x720","1280x578","DiagramFeedback","AliceDiagramFeedback","AliceDiagramFeedback",2,"1",2,"Klaar4Sporten","advancementZone","continue_button",NA,NA,NA,"",NA,"AliceDiagramFeedbackIntroVid"
"6",1604403987967,1,"03/11/2020 12:46:27","BLIND",1683571,NA,"complete",NA,"5fa141cd0caca41eed982b1e","computer","Desktop or Laptop","Windows 10","Chrome 86.0.4240.111","1280x720","1280x578","DiagramFeedback","AliceDiagramFeedback","",NA,"END TASK",NA,"","","","194081",NA,NA,"",NA,""
"1",1604605551790,1,"05/11/2020 20:45:51","BLIND",2495352,NA,"complete",NA,"5fa4563a81c7720aa07d2f3b","computer","Desktop or Laptop","Windows 10","Chrome 86.0.4240.183","1536x864","1536x722","DiagramFeedback","AliceDiagramFeedback","",NA,"BEGIN TASK",NA,"","","","",NA,NA,"",NA,""
"2",1604605554768,1,"05/11/2020 20:45:54","BLIND",2495352,NA,"complete",NA,"5fa4563a81c7720aa07d2f3b","computer","Desktop or Laptop","Windows 10","Chrome 86.0.4240.183","1536x864","1536x722","DiagramFeedback","AliceDiagramFeedback","AliceDiagramFeedback",1,"1",1,"Screen 1","advancementZone","continue_button",NA,NA,NA,"",NA,"IntroAlice"
"3",1604605729690,1,"05/11/2020 20:48:49","BLIND",2495352,NA,"complete",NA,"5fa4563a81c7720aa07d2f3b","computer","Desktop or Laptop","Windows 10","Chrome 86.0.4240.183","1536x864","1536x722","DiagramFeedback","AliceDiagramFeedback","AliceDiagramFeedback",2,"1",1,"Screen 2","content","content_video",NA,NA,NA,"",NA,"AliceDiagramFeedbackIntroVid"
"4",1604605731799,1,"05/11/2020 20:48:51","BLIND",2495352,NA,"complete",NA,"5fa4563a81c7720aa07d2f3b","computer","Desktop or Laptop","Windows 10","Chrome 86.0.4240.183","1536x864","1536x722","DiagramFeedback","AliceDiagramFeedback","AliceDiagramFeedback",2,"1",2,"Klaar4Sporten","advancementZone","continue_button",NA,NA,NA,"",NA,"AliceDiagramFeedbackIntroVid"
"5",1604605731802,1,"05/11/2020 20:48:51","BLIND",2495352,NA,"complete",NA,"5fa4563a81c7720aa07d2f3b","computer","Desktop or Laptop","Windows 10","Chrome 86.0.4240.183","1536x864","1536x722","DiagramFeedback","AliceDiagramFeedback","",NA,"END TASK",NA,"","","","180012",NA,NA,"",NA,""
"1",1604742591316,1,"07/11/2020 10:49:51","BLIND",2977600,NA,"complete",NA,"5fa66d66eb0dac26f0ba5f1e","computer","Desktop or Laptop","Windows 10","Chrome 86.0.4240.183","1920x1080","1920x969","DiagramFeedback","AliceDiagramFeedback","",NA,"BEGIN TASK",NA,"","","","",NA,NA,"",NA,""
"2",1604742600568,1,"07/11/2020 10:50:00","BLIND",2977600,NA,"complete",NA,"5fa66d66eb0dac26f0ba5f1e","computer","Desktop or Laptop","Windows 10","Chrome 86.0.4240.183","1920x1080","1920x969","DiagramFeedback","AliceDiagramFeedback","AliceDiagramFeedback",1,"1",1,"Screen 1","advancementZone","continue_button",NA,NA,NA,"",NA,"IntroAlice"
"3",1604742773901,1,"07/11/2020 10:52:53","BLIND",2977600,NA,"complete",NA,"5fa66d66eb0dac26f0ba5f1e","computer","Desktop or Laptop","Windows 10","Chrome 86.0.4240.183","1920x1080","1920x969","DiagramFeedback","AliceDiagramFeedback","AliceDiagramFeedback",2,"1",1,"Screen 2","content","content_video",NA,NA,NA,"",NA,"AliceDiagramFeedbackIntroVid"
"4",1604742776407,1,"07/11/2020 10:52:56","BLIND",2977600,NA,"complete",NA,"5fa66d66eb0dac26f0ba5f1e","computer","Desktop or Laptop","Windows 10","Chrome 86.0.4240.183","1920x1080","1920x969","DiagramFeedback","AliceDiagramFeedback","AliceDiagramFeedback",2,"1",2,"Klaar4Sporten","advancementZone","continue_button",NA,NA,NA,"",NA,"AliceDiagramFeedbackIntroVid"
"5",1604742776410,1,"07/11/2020 10:52:56","BLIND",2977600,NA,"complete",NA,"5fa66d66eb0dac26f0ba5f1e","computer","Desktop or Laptop","Windows 10","Chrome 86.0.4240.183","1920x1080","1920x969","DiagramFeedback","AliceDiagramFeedback","",NA,"END TASK",NA,"","","","185094",NA,NA,"",NA,""
"1",1604092923006,1,"30/10/2020 22:22:03","BLIND",3017711,NA,"complete",NA,"5f9c835b6586b4143dec83c8","computer","Desktop or Laptop","Windows 10","Chrome 86.0.4240.111","1536x864","1536x760","DiagramFeedback","AliceDiagramFeedback","",NA,"BEGIN TASK",NA,"","","","",NA,NA,"",NA,""
"2",1604092927563,1,"30/10/2020 22:22:07","BLIND",3017711,NA,"complete",NA,"5f9c835b6586b4143dec83c8","computer","Desktop or Laptop","Windows 10","Chrome 86.0.4240.111","1536x864","1536x760","DiagramFeedback","AliceDiagramFeedback","AliceDiagramFeedback",1,"1",1,"Screen 1","advancementZone","continue_button",NA,NA,NA,"",NA,"IntroAlice"
"3",1604092937567,1,"30/10/2020 22:22:17","BLIND",3017711,NA,"complete",NA,"5f9c835b6586b4143dec83c8","computer","Desktop or Laptop","Windows 10","Chrome 86.0.4240.111","1536x864","1536x760","DiagramFeedback","AliceDiagramFeedback","",NA,"",NA,"","","",NA,NA,NA,"A loading delay of more than 10s was detected.",NA,""
"4",1604093113120,1,"30/10/2020 22:25:13","BLIND",3017711,NA,"complete",NA,"5f9c835b6586b4143dec83c8","computer","Desktop or Laptop","Windows 10","Chrome 86.0.4240.111","1536x864","1536x760","DiagramFeedback","AliceDiagramFeedback","AliceDiagramFeedback",2,"1",1,"Screen 2","content","content_video",NA,NA,NA,"",NA,"AliceDiagramFeedbackIntroVid"
"5",1604093122871,1,"30/10/2020 22:25:22","BLIND",3017711,NA,"complete",NA,"5f9c835b6586b4143dec83c8","computer","Desktop or Laptop","Windows 10","Chrome 86.0.4240.111","1536x864","1536x760","DiagramFeedback","AliceDiagramFeedback","AliceDiagramFeedback",2,"1",2,"Klaar4Sporten","advancementZone","continue_button",NA,NA,NA,"",NA,"AliceDiagramFeedbackIntroVid"
"6",1604093122875,1,"30/10/2020 22:25:22","BLIND",3017711,NA,"complete",NA,"5f9c835b6586b4143dec83c8","computer","Desktop or Laptop","Windows 10","Chrome 86.0.4240.111","1536x864","1536x760","DiagramFeedback","AliceDiagramFeedback","",NA,"END TASK",NA,"","","","199869",NA,NA,"",NA,""
"1",1605016111729,1,"10/11/2020 14:48:31","BLIND",3813665,NA,"complete",NA,"5faa9a08c37823405e4a4540","computer","Desktop or Laptop","Windows 10","Chrome 86.0.4240.183","1920x1080","1920x937","DiagramFeedback","AliceDiagramFeedback","",NA,"BEGIN TASK",NA,"","","","",NA,NA,"",NA,""
"2",1605016115257,1,"10/11/2020 14:48:35","BLIND",3813665,NA,"complete",NA,"5faa9a08c37823405e4a4540","computer","Desktop or Laptop","Windows 10","Chrome 86.0.4240.183","1920x1080","1920x937","DiagramFeedback","AliceDiagramFeedback","AliceDiagramFeedback",1,"1",1,"Screen 1","advancementZone","continue_button",NA,NA,NA,"",NA,"IntroAlice"
"3",1605016125261,1,"10/11/2020 14:48:45","BLIND",3813665,NA,"complete",NA,"5faa9a08c37823405e4a4540","computer","Desktop or Laptop","Windows 10","Chrome 86.0.4240.183","1920x1080","1920x937","DiagramFeedback","AliceDiagramFeedback","",NA,"",NA,"","","",NA,NA,NA,"A loading delay of more than 10s was detected.",NA,""
"4",1605016336662,1,"10/11/2020 14:52:16","BLIND",3813665,NA,"complete",NA,"5faa9a08c37823405e4a4540","computer","Desktop or Laptop","Windows 10","Chrome 86.0.4240.183","1920x1080","1920x937","DiagramFeedback","AliceDiagramFeedback","AliceDiagramFeedback",2,"1",1,"Screen 2","content","content_video",NA,NA,NA,"",NA,"AliceDiagramFeedbackIntroVid"
"5",1605016340878,1,"10/11/2020 14:52:20","BLIND",3813665,NA,"complete",NA,"5faa9a08c37823405e4a4540","computer","Desktop or Laptop","Windows 10","Chrome 86.0.4240.183","1920x1080","1920x937","DiagramFeedback","AliceDiagramFeedback","AliceDiagramFeedback",2,"1",2,"Klaar4Sporten","advancementZone","continue_button",NA,NA,NA,"",NA,"AliceDiagramFeedbackIntroVid"
"6",1605016340881,1,"10/11/2020 14:52:20","BLIND",3813665,NA,"complete",NA,"5faa9a08c37823405e4a4540","computer","Desktop or Laptop","Windows 10","Chrome 86.0.4240.183","1920x1080","1920x937","DiagramFeedback","AliceDiagramFeedback","",NA,"END TASK",NA,"","","","229152",NA,NA,"",NA,""
"1",1604152633788,1,"31/10/2020 14:57:13","BLIND",4548750,NA,"complete",NA,"5f9d6ce2fa89fe28f1fed477","computer","Desktop or Laptop","Linux x86_64","Chrome 86.0.4240.110","892x412","980x374","DiagramFeedback","AliceDiagramFeedback","",NA,"BEGIN TASK",NA,"","","","",NA,NA,"",NA,""
"2",1604152638630,1,"31/10/2020 14:57:18","BLIND",4548750,NA,"complete",NA,"5f9d6ce2fa89fe28f1fed477","computer","Desktop or Laptop","Linux x86_64","Chrome 86.0.4240.110","892x412","980x351","DiagramFeedback","AliceDiagramFeedback","AliceDiagramFeedback",1,"1",1,"Screen 1","advancementZone","continue_button",NA,NA,NA,"",NA,"IntroAlice"
"3",1604152816696,1,"31/10/2020 15:00:16","BLIND",4548750,NA,"complete",NA,"5f9d6ce2fa89fe28f1fed477","computer","Desktop or Laptop","Linux x86_64","Chrome 86.0.4240.110","892x412","980x351","DiagramFeedback","AliceDiagramFeedback","AliceDiagramFeedback",2,"1",1,"Screen 2","content","content_video",NA,NA,NA,"",NA,"AliceDiagramFeedbackIntroVid"
"4",1604152824640,1,"31/10/2020 15:00:24","BLIND",4548750,NA,"complete",NA,"5f9d6ce2fa89fe28f1fed477","computer","Desktop or Laptop","Linux x86_64","Chrome 86.0.4240.110","892x412","980x351","DiagramFeedback","AliceDiagramFeedback","AliceDiagramFeedback",2,"1",2,"Klaar4Sporten","advancementZone","continue_button",NA,NA,NA,"",NA,"AliceDiagramFeedbackIntroVid"
"5",1604152824649,1,"31/10/2020 15:00:24","BLIND",4548750,NA,"complete",NA,"5f9d6ce2fa89fe28f1fed477","computer","Desktop or Laptop","Linux x86_64","Chrome 86.0.4240.110","892x412","980x351","DiagramFeedback","AliceDiagramFeedback","",NA,"END TASK",NA,"","","","190860",NA,NA,"",NA,""
"1",1604071864025,1,"30/10/2020 16:31:04","BLIND",4923840,NA,"complete",NA,"5f9c3182a45c210808837e01","computer","Desktop or Laptop","Windows 10","Chrome 86.0.4240.111","1920x1080","1920x947","DiagramFeedback","AliceDiagramFeedback","",NA,"BEGIN TASK",NA,"","","","",NA,NA,"",NA,""
"2",1604071867638,1,"30/10/2020 16:31:07","BLIND",4923840,NA,"complete",NA,"5f9c3182a45c210808837e01","computer","Desktop or Laptop","Windows 10","Chrome 86.0.4240.111","1920x1080","1920x947","DiagramFeedback","AliceDiagramFeedback","AliceDiagramFeedback",1,"1",1,"Screen 1","advancementZone","continue_button",NA,NA,NA,"",NA,"IntroAlice"
"3",1604072043128,1,"30/10/2020 16:34:03","BLIND",4923840,NA,"complete",NA,"5f9c3182a45c210808837e01","computer","Desktop or Laptop","Windows 10","Chrome 86.0.4240.111","1920x1080","1920x947","DiagramFeedback","AliceDiagramFeedback","AliceDiagramFeedback",2,"1",1,"Screen 2","content","content_video",NA,NA,NA,"",NA,"AliceDiagramFeedbackIntroVid"
"4",1604072063452,1,"30/10/2020 16:34:23","BLIND",4923840,NA,"complete",NA,"5f9c3182a45c210808837e01","computer","Desktop or Laptop","Windows 10","Chrome 86.0.4240.111","1920x1080","1920x947","DiagramFeedback","AliceDiagramFeedback","AliceDiagramFeedback",2,"1",2,"Klaar4Sporten","advancementZone","continue_button",NA,NA,NA,"",NA,"AliceDiagramFeedbackIntroVid"
"5",1604072063454,1,"30/10/2020 16:34:23","BLIND",4923840,NA,"complete",NA,"5f9c3182a45c210808837e01","computer","Desktop or Laptop","Windows 10","Chrome 86.0.4240.111","1920x1080","1920x947","DiagramFeedback","AliceDiagramFeedback","",NA,"END TASK",NA,"","","","199429",NA,NA,"",NA,""
"1",1604070519490,1,"30/10/2020 16:08:39","BLIND",5646202,NA,"complete",NA,"5f9c2c440cf8aa07faed3db8","computer","Desktop or Laptop","Windows 10","Chrome 86.0.4240.111","1920x1080","1920x937","DiagramFeedback","AliceDiagramFeedback","",NA,"BEGIN TASK",NA,"","","","",NA,NA,"",NA,""
"2",1604070523067,1,"30/10/2020 16:08:43","BLIND",5646202,NA,"complete",NA,"5f9c2c440cf8aa07faed3db8","computer","Desktop or Laptop","Windows 10","Chrome 86.0.4240.111","1920x1080","1920x937","DiagramFeedback","AliceDiagramFeedback","AliceDiagramFeedback",1,"1",1,"Screen 1","advancementZone","continue_button",NA,NA,NA,"",NA,"IntroAlice"
"3",1604070702462,1,"30/10/2020 16:11:42","BLIND",5646202,NA,"complete",NA,"5f9c2c440cf8aa07faed3db8","computer","Desktop or Laptop","Windows 10","Chrome 86.0.4240.111","1920x1080","1920x937","DiagramFeedback","AliceDiagramFeedback","AliceDiagramFeedback",2,"1",1,"Screen 2","content","content_video",NA,NA,NA,"",NA,"AliceDiagramFeedbackIntroVid"
"4",1604070711462,1,"30/10/2020 16:11:51","BLIND",5646202,NA,"complete",NA,"5f9c2c440cf8aa07faed3db8","computer","Desktop or Laptop","Windows 10","Chrome 86.0.4240.111","1920x1080","1920x937","DiagramFeedback","AliceDiagramFeedback","AliceDiagramFeedback",2,"1",2,"Klaar4Sporten","advancementZone","continue_button",NA,NA,NA,"",NA,"AliceDiagramFeedbackIntroVid"
"5",1604070711465,1,"30/10/2020 16:11:51","BLIND",5646202,NA,"complete",NA,"5f9c2c440cf8aa07faed3db8","computer","Desktop or Laptop","Windows 10","Chrome 86.0.4240.111","1920x1080","1920x937","DiagramFeedback","AliceDiagramFeedback","",NA,"END TASK",NA,"","","","191975",NA,NA,"",NA,""
"1",1604081892089,1,"30/10/2020 19:18:12","BLIND",5818273,NA,"complete",NA,"5f9c5806d6d40c0ec0d377a6","computer","Desktop or Laptop","Mac OS 10.10.5","Chrome 86.0.4240.111","1280x800","1279x652","DiagramFeedback","AliceDiagramFeedback","",NA,"BEGIN TASK",NA,"","","","",NA,NA,"",NA,""
"2",1604081897444,1,"30/10/2020 19:18:17","BLIND",5818273,NA,"complete",NA,"5f9c5806d6d40c0ec0d377a6","computer","Desktop or Laptop","Mac OS 10.10.5","Chrome 86.0.4240.111","1280x800","1279x652","DiagramFeedback","AliceDiagramFeedback","AliceDiagramFeedback",1,"1",1,"Screen 1","advancementZone","continue_button",NA,NA,NA,"",NA,"IntroAlice"
"3",1604082078270,1,"30/10/2020 19:21:18","BLIND",5818273,NA,"complete",NA,"5f9c5806d6d40c0ec0d377a6","computer","Desktop or Laptop","Mac OS 10.10.5","Chrome 86.0.4240.111","1280x800","1279x652","DiagramFeedback","AliceDiagramFeedback","AliceDiagramFeedback",2,"1",1,"Screen 2","content","content_video",NA,NA,NA,"",NA,"AliceDiagramFeedbackIntroVid"
"4",1604082084441,1,"30/10/2020 19:21:24","BLIND",5818273,NA,"complete",NA,"5f9c5806d6d40c0ec0d377a6","computer","Desktop or Laptop","Mac OS 10.10.5","Chrome 86.0.4240.111","1280x800","1279x652","DiagramFeedback","AliceDiagramFeedback","AliceDiagramFeedback",2,"1",2,"Klaar4Sporten","advancementZone","continue_button",NA,NA,NA,"",NA,"AliceDiagramFeedbackIntroVid"
"5",1604082084444,1,"30/10/2020 19:21:24","BLIND",5818273,NA,"complete",NA,"5f9c5806d6d40c0ec0d377a6","computer","Desktop or Laptop","Mac OS 10.10.5","Chrome 86.0.4240.111","1280x800","1279x652","DiagramFeedback","AliceDiagramFeedback","",NA,"END TASK",NA,"","","","192355",NA,NA,"",NA,""
"1",1604745859560,1,"07/11/2020 11:44:19","BLIND",5832225,NA,"complete",NA,"5fa67a42baf8112a1783c56d","computer","Desktop or Laptop","Windows 10","Firefox 82.0","1920x1080","1920x966","DiagramFeedback","AliceDiagramFeedback","",NA,"BEGIN TASK",NA,"","","","",NA,NA,"",NA,""
"2",1604745862909,1,"07/11/2020 11:44:22","BLIND",5832225,NA,"complete",NA,"5fa67a42baf8112a1783c56d","computer","Desktop or Laptop","Windows 10","Firefox 82.0","1920x1080","1920x966","DiagramFeedback","AliceDiagramFeedback","AliceDiagramFeedback",1,"1",1,"Screen 1","advancementZone","continue_button",NA,NA,NA,"",NA,"IntroAlice"
"3",1604746036276,1,"07/11/2020 11:47:16","BLIND",5832225,NA,"complete",NA,"5fa67a42baf8112a1783c56d","computer","Desktop or Laptop","Windows 10","Firefox 82.0","1920x1080","1920x966","DiagramFeedback","AliceDiagramFeedback","AliceDiagramFeedback",2,"1",1,"Screen 2","content","content_video",NA,NA,NA,"",NA,"AliceDiagramFeedbackIntroVid"
"4",1604746039923,1,"07/11/2020 11:47:19","BLIND",5832225,NA,"complete",NA,"5fa67a42baf8112a1783c56d","computer","Desktop or Laptop","Windows 10","Firefox 82.0","1920x1080","1920x966","DiagramFeedback","AliceDiagramFeedback","AliceDiagramFeedback",2,"1",2,"Klaar4Sporten","advancementZone","continue_button",NA,NA,NA,"",NA,"AliceDiagramFeedbackIntroVid"
"5",1604746039928,1,"07/11/2020 11:47:19","BLIND",5832225,NA,"complete",NA,"5fa67a42baf8112a1783c56d","computer","Desktop or Laptop","Windows 10","Firefox 82.0","1920x1080","1920x966","DiagramFeedback","AliceDiagramFeedback","",NA,"END TASK",NA,"","","","180368",NA,NA,"",NA,""
"1",1604096858858,1,"30/10/2020 23:27:38","BLIND",6006797,NA,"complete",NA,"5f9c92a6f8e00f169ccdbe6c","computer","Desktop or Laptop","Windows 10","Chrome 86.0.4240.111","1536x864","1536x754","DiagramFeedback","AliceDiagramFeedback","",NA,"BEGIN TASK",NA,"","","","",NA,NA,"",NA,""
"2",1604096868507,1,"30/10/2020 23:27:48","BLIND",6006797,NA,"complete",NA,"5f9c92a6f8e00f169ccdbe6c","computer","Desktop or Laptop","Windows 10","Chrome 86.0.4240.111","1536x864","1536x754","DiagramFeedback","AliceDiagramFeedback","AliceDiagramFeedback",1,"1",1,"Screen 1","advancementZone","continue_button",NA,NA,NA,"",NA,"IntroAlice"
"3",1604097041917,1,"30/10/2020 23:30:41","BLIND",6006797,NA,"complete",NA,"5f9c92a6f8e00f169ccdbe6c","computer","Desktop or Laptop","Windows 10","Chrome 86.0.4240.111","1536x864","1536x754","DiagramFeedback","AliceDiagramFeedback","AliceDiagramFeedback",2,"1",1,"Screen 2","content","content_video",NA,NA,NA,"",NA,"AliceDiagramFeedbackIntroVid"
"4",1604097044843,1,"30/10/2020 23:30:44","BLIND",6006797,NA,"complete",NA,"5f9c92a6f8e00f169ccdbe6c","computer","Desktop or Laptop","Windows 10","Chrome 86.0.4240.111","1536x864","1536x754","DiagramFeedback","AliceDiagramFeedback","AliceDiagramFeedback",2,"1",2,"Klaar4Sporten","advancementZone","continue_button",NA,NA,NA,"",NA,"AliceDiagramFeedbackIntroVid"
"5",1604097044853,1,"30/10/2020 23:30:44","BLIND",6006797,NA,"complete",NA,"5f9c92a6f8e00f169ccdbe6c","computer","Desktop or Laptop","Windows 10","Chrome 86.0.4240.111","1536x864","1536x754","DiagramFeedback","AliceDiagramFeedback","",NA,"END TASK",NA,"","","","185995",NA,NA,"",NA,""
"1",1604565918862,1,"05/11/2020 09:45:18","BLIND",6630813,NA,"complete",NA,"5fa3bb26d4673800080b07fd","computer","Desktop or Laptop","Windows 10","Chrome 86.0.4240.183","1920x1080","1918x977","DiagramFeedback","AliceDiagramFeedback","",NA,"BEGIN TASK",NA,"","","","",NA,NA,"",NA,""
"2",1604565923462,1,"05/11/2020 09:45:23","BLIND",6630813,NA,"complete",NA,"5fa3bb26d4673800080b07fd","computer","Desktop or Laptop","Windows 10","Chrome 86.0.4240.183","1920x1080","1918x977","DiagramFeedback","AliceDiagramFeedback","AliceDiagramFeedback",1,"1",1,"Screen 1","advancementZone","continue_button",NA,NA,NA,"",NA,"IntroAlice"
"3",1604566101393,1,"05/11/2020 09:48:21","BLIND",6630813,NA,"complete",NA,"5fa3bb26d4673800080b07fd","computer","Desktop or Laptop","Windows 10","Chrome 86.0.4240.183","1920x1080","1918x977","DiagramFeedback","AliceDiagramFeedback","AliceDiagramFeedback",2,"1",1,"Screen 2","content","content_video",NA,NA,NA,"",NA,"AliceDiagramFeedbackIntroVid"
"4",1604566104521,1,"05/11/2020 09:48:24","BLIND",6630813,NA,"complete",NA,"5fa3bb26d4673800080b07fd","computer","Desktop or Laptop","Windows 10","Chrome 86.0.4240.183","1920x1080","1918x977","DiagramFeedback","AliceDiagramFeedback","AliceDiagramFeedback",2,"1",2,"Klaar4Sporten","advancementZone","continue_button",NA,NA,NA,"",NA,"AliceDiagramFeedbackIntroVid"
"5",1604566104524,1,"05/11/2020 09:48:24","BLIND",6630813,NA,"complete",NA,"5fa3bb26d4673800080b07fd","computer","Desktop or Laptop","Windows 10","Chrome 86.0.4240.183","1920x1080","1918x977","DiagramFeedback","AliceDiagramFeedback","",NA,"END TASK",NA,"","","","185662",NA,NA,"",NA,""
"1",1604176037840,1,"31/10/2020 21:27:17","BLIND",7035441,NA,"complete",NA,"5f9dc6b520015a34229609b1","computer","Desktop or Laptop","Windows 10","Chrome 86.0.4240.111","1920x1080","1920x937","DiagramFeedback","AliceDiagramFeedback","",NA,"BEGIN TASK",NA,"","","","",NA,NA,"",NA,""
"2",1604176045645,1,"31/10/2020 21:27:25","BLIND",7035441,NA,"complete",NA,"5f9dc6b520015a34229609b1","computer","Desktop or Laptop","Windows 10","Chrome 86.0.4240.111","1920x1080","1920x937","DiagramFeedback","AliceDiagramFeedback","AliceDiagramFeedback",1,"1",1,"Screen 1","advancementZone","continue_button",NA,NA,NA,"",NA,"IntroAlice"
"3",1604176218990,1,"31/10/2020 21:30:18","BLIND",7035441,NA,"complete",NA,"5f9dc6b520015a34229609b1","computer","Desktop or Laptop","Windows 10","Chrome 86.0.4240.111","1920x1080","1920x937","DiagramFeedback","AliceDiagramFeedback","AliceDiagramFeedback",2,"1",1,"Screen 2","content","content_video",NA,NA,NA,"",NA,"AliceDiagramFeedbackIntroVid"
"4",1604176221538,1,"31/10/2020 21:30:21","BLIND",7035441,NA,"complete",NA,"5f9dc6b520015a34229609b1","computer","Desktop or Laptop","Windows 10","Chrome 86.0.4240.111","1920x1080","1920x937","DiagramFeedback","AliceDiagramFeedback","AliceDiagramFeedback",2,"1",2,"Klaar4Sporten","advancementZone","continue_button",NA,NA,NA,"",NA,"AliceDiagramFeedbackIntroVid"
"5",1604176221541,1,"31/10/2020 21:30:21","BLIND",7035441,NA,"complete",NA,"5f9dc6b520015a34229609b1","computer","Desktop or Laptop","Windows 10","Chrome 86.0.4240.111","1920x1080","1920x937","DiagramFeedback","AliceDiagramFeedback","",NA,"END TASK",NA,"","","","183701",NA,NA,"",NA,""
"1",1604254660790,1,"01/11/2020 19:17:40","BLIND",7249074,NA,"complete",NA,"5f9efb9010da930e028441e7","computer","Desktop or Laptop","Windows 10","Chrome 86.0.4240.111","1536x864","1536x763","DiagramFeedback","AliceDiagramFeedback","",NA,"BEGIN TASK",NA,"","","","",NA,NA,"",NA,""
"2",1604254663655,1,"01/11/2020 19:17:43","BLIND",7249074,NA,"complete",NA,"5f9efb9010da930e028441e7","computer","Desktop or Laptop","Windows 10","Chrome 86.0.4240.111","1536x864","1536x763","DiagramFeedback","AliceDiagramFeedback","AliceDiagramFeedback",1,"1",1,"Screen 1","advancementZone","continue_button",NA,NA,NA,"",NA,"IntroAlice"
"3",1604254846618,1,"01/11/2020 19:20:46","BLIND",7249074,NA,"complete",NA,"5f9efb9010da930e028441e7","computer","Desktop or Laptop","Windows 10","Chrome 86.0.4240.111","1536x864","1536x763","DiagramFeedback","AliceDiagramFeedback","AliceDiagramFeedback",2,"1",1,"Screen 2","content","content_video",NA,NA,NA,"",NA,"AliceDiagramFeedbackIntroVid"
"4",1604254848392,1,"01/11/2020 19:20:48","BLIND",7249074,NA,"complete",NA,"5f9efb9010da930e028441e7","computer","Desktop or Laptop","Windows 10","Chrome 86.0.4240.111","1536x864","1536x763","DiagramFeedback","AliceDiagramFeedback","AliceDiagramFeedback",2,"1",2,"Klaar4Sporten","advancementZone","continue_button",NA,NA,NA,"",NA,"AliceDiagramFeedbackIntroVid"
"5",1604254848395,1,"01/11/2020 19:20:48","BLIND",7249074,NA,"complete",NA,"5f9efb9010da930e028441e7","computer","Desktop or Laptop","Windows 10","Chrome 86.0.4240.111","1536x864","1536x763","DiagramFeedback","AliceDiagramFeedback","",NA,"END TASK",NA,"","","","187605",NA,NA,"",NA,""
"1",1604073078420,1,"30/10/2020 16:51:18","BLIND",7312962,NA,"complete",NA,"5f9c35de9e7c0a09591fc25e","computer","Desktop or Laptop","Windows 10","Firefox 82.0","2048x1152","2048x1010","DiagramFeedback","AliceDiagramFeedback","",NA,"BEGIN TASK",NA,"","","","",NA,NA,"",NA,""
"2",1604073082305,1,"30/10/2020 16:51:22","BLIND",7312962,NA,"complete",NA,"5f9c35de9e7c0a09591fc25e","computer","Desktop or Laptop","Windows 10","Firefox 82.0","2048x1152","2048x1010","DiagramFeedback","AliceDiagramFeedback","AliceDiagramFeedback",1,"1",1,"Screen 1","advancementZone","continue_button",NA,NA,NA,"",NA,"IntroAlice"
"3",1604073255665,1,"30/10/2020 16:54:15","BLIND",7312962,NA,"complete",NA,"5f9c35de9e7c0a09591fc25e","computer","Desktop or Laptop","Windows 10","Firefox 82.0","2048x1152","2048x1010","DiagramFeedback","AliceDiagramFeedback","AliceDiagramFeedback",2,"1",1,"Screen 2","content","content_video",NA,NA,NA,"",NA,"AliceDiagramFeedbackIntroVid"
"4",1604073259142,1,"30/10/2020 16:54:19","BLIND",7312962,NA,"complete",NA,"5f9c35de9e7c0a09591fc25e","computer","Desktop or Laptop","Windows 10","Firefox 82.0","2048x1152","2048x1010","DiagramFeedback","AliceDiagramFeedback","AliceDiagramFeedback",2,"1",2,"Klaar4Sporten","advancementZone","continue_button",NA,NA,NA,"",NA,"AliceDiagramFeedbackIntroVid"
"5",1604073259152,1,"30/10/2020 16:54:19","BLIND",7312962,NA,"complete",NA,"5f9c35de9e7c0a09591fc25e","computer","Desktop or Laptop","Windows 10","Firefox 82.0","2048x1152","2048x1010","DiagramFeedback","AliceDiagramFeedback","",NA,"END TASK",NA,"","","","180732",NA,NA,"",NA,""
"1",1604076781326,1,"30/10/2020 17:53:01","BLIND",8060200,NA,"complete",NA,"5f9c4433801a250b0e1b744b","computer","Desktop or Laptop","Windows 10","Chrome 86.0.4240.111","1920x1080","1920x969","DiagramFeedback","AliceDiagramFeedback","",NA,"BEGIN TASK",NA,"","","","",NA,NA,"",NA,""
"2",1604076790668,1,"30/10/2020 17:53:10","BLIND",8060200,NA,"complete",NA,"5f9c4433801a250b0e1b744b","computer","Desktop or Laptop","Windows 10","Chrome 86.0.4240.111","1920x1080","1920x969","DiagramFeedback","AliceDiagramFeedback","AliceDiagramFeedback",1,"1",1,"Screen 1","advancementZone","continue_button",NA,NA,NA,"",NA,"IntroAlice"
"3",1604076800672,1,"30/10/2020 17:53:20","BLIND",8060200,NA,"complete",NA,"5f9c4433801a250b0e1b744b","computer","Desktop or Laptop","Windows 10","Chrome 86.0.4240.111","1920x1080","1920x969","DiagramFeedback","AliceDiagramFeedback","",NA,"",NA,"","","",NA,NA,NA,"A loading delay of more than 10s was detected.",NA,""
"4",1604076975189,1,"30/10/2020 17:56:15","BLIND",8060200,NA,"complete",NA,"5f9c4433801a250b0e1b744b","computer","Desktop or Laptop","Windows 10","Chrome 86.0.4240.111","1920x1080","1920x969","DiagramFeedback","AliceDiagramFeedback","AliceDiagramFeedback",2,"1",1,"Screen 2","content","content_video",NA,NA,NA,"",NA,"AliceDiagramFeedbackIntroVid"
"5",1604076978846,1,"30/10/2020 17:56:18","BLIND",8060200,NA,"complete",NA,"5f9c4433801a250b0e1b744b","computer","Desktop or Laptop","Windows 10","Chrome 86.0.4240.111","1920x1080","1920x969","DiagramFeedback","AliceDiagramFeedback","AliceDiagramFeedback",2,"1",2,"Klaar4Sporten","advancementZone","continue_button",NA,NA,NA,"",NA,"AliceDiagramFeedbackIntroVid"
"6",1604076978851,1,"30/10/2020 17:56:18","BLIND",8060200,NA,"complete",NA,"5f9c4433801a250b0e1b744b","computer","Desktop or Laptop","Windows 10","Chrome 86.0.4240.111","1920x1080","1920x969","DiagramFeedback","AliceDiagramFeedback","",NA,"END TASK",NA,"","","","197525",NA,NA,"",NA,""
"END OF FILE",NA,NA,"","",NA,NA,"",NA,"","","","","","","","","","",NA,"",NA,"","","",NA,NA,NA,"",NA,""
"END OF FILE",NA,NA,"","",NA,NA,"",NA,"","","","","","","","","","",NA,"",NA,"","","","",NA,NA,"",NA,""
