"Event_Index","Local_Timestamp","Local_Timezone","Local_Date","Participant_Public_ID","Participant_Private_ID","Participant_Starting_Group","Participant_Status","Participant_Completion_Code","Participant_External_Session_ID","Participant_Device_Type","Participant_Device","Participant_OS","Participant_Browser","Participant_Monitor_Size","Participant_Viewport_Size","randomiser_81rl","Spreadsheet","Spreadsheet_Name","Spreadsheet_Row","Trial_Number","Screen_Number","Screen_Name","Zone_Name","Zone_Type","Reaction_Time","Reaction_Onset","Response_Type","Response","Attempt","display","Diagram_Box_Require_Response"
"1",1601676031365,2,"03/10/2020 00:00:31","BLIND",1317396,NA,"complete",NA,"5f779292be4d822f10e2171c","computer","Desktop or Laptop","Windows 10","Chrome 85.0.4183.121","1920x1080","1920x937","FeedbackOnly","FeedbackOnly","",NA,"BEGIN TASK",NA,"","","",NA,NA,NA,"",NA,"",NA
"10",1601676223819,2,"03/10/2020 00:03:43","BLIND",1317396,NA,"complete",NA,"5f779292be4d822f10e2171c","computer","Desktop or Laptop","Windows 10","Chrome 85.0.4183.121","1920x1080","1920x937","FeedbackOnly","FeedbackOnly","FeedbackOnly",9,"1",1,"Text","advancementZone","continue_button",48416.2531382934,NA,NA,"",NA,"GeldFeedbackOnly",NA
"11",1601676225683,2,"03/10/2020 00:03:45","BLIND",1317396,NA,"complete",NA,"5f779292be4d822f10e2171c","computer","Desktop or Laptop","Windows 10","Chrome 85.0.4183.121","1920x1080","1920x937","FeedbackOnly","FeedbackOnly","FeedbackOnly",9,"1",2,"JoL1","Two","response_button_text",48416.2531382934,NA,NA,"4",1,"GeldFeedbackOnly",NA
"12",1601676246147,2,"03/10/2020 00:04:06","BLIND",1317396,NA,"complete",NA,"5f779292be4d822f10e2171c","computer","Desktop or Laptop","Windows 10","Chrome 85.0.4183.121","1920x1080","1920x937","FeedbackOnly","FeedbackOnly","FeedbackOnly",9,"1",3,"Feedback","Zone1","continue_button",48416.2531382934,NA,NA,"",NA,"GeldFeedbackOnly",NA
"13",1601676248203,2,"03/10/2020 00:04:08","BLIND",1317396,NA,"complete",NA,"5f779292be4d822f10e2171c","computer","Desktop or Laptop","Windows 10","Chrome 85.0.4183.121","1920x1080","1920x937","FeedbackOnly","FeedbackOnly","FeedbackOnly",9,"1",4,"JoL2","Two","response_button_text",48416.2531382934,NA,NA,"4",1,"GeldFeedbackOnly",NA
"14",1601676249459,2,"03/10/2020 00:04:09","BLIND",1317396,NA,"complete",NA,"5f779292be4d822f10e2171c","computer","Desktop or Laptop","Windows 10","Chrome 85.0.4183.121","1920x1080","1920x937","FeedbackOnly","FeedbackOnly","FeedbackOnly",9,"1",5,"ToetsInstructies","advancementZone","continue_button",48416.2531382934,NA,NA,"",NA,"GeldFeedbackOnly",NA
"15",1601676303656,2,"03/10/2020 00:05:03","BLIND",1317396,NA,"complete",NA,"5f779292be4d822f10e2171c","computer","Desktop or Laptop","Windows 10","Chrome 85.0.4183.121","1920x1080","1920x937","FeedbackOnly","FeedbackOnly","FeedbackOnly",9,"1",6,"Test","buttonA","response_text_area",48416.2531382934,NA,NA,"wulPT",NA,"GeldFeedbackOnly",NA
"16",1601676303657,2,"03/10/2020 00:05:03","BLIND",1317396,NA,"complete",NA,"5f779292be4d822f10e2171c","computer","Desktop or Laptop","Windows 10","Chrome 85.0.4183.121","1920x1080","1920x937","FeedbackOnly","FeedbackOnly","FeedbackOnly",9,"1",6,"Test","buttonB","continue_button",48416.2531382934,NA,NA,"",NA,"GeldFeedbackOnly",NA
"17",1601676305346,2,"03/10/2020 00:05:05","BLIND",1317396,NA,"complete",NA,"5f779292be4d822f10e2171c","computer","Desktop or Laptop","Windows 10","Chrome 85.0.4183.121","1920x1080","1920x937","FeedbackOnly","FeedbackOnly","FeedbackOnly",4,"2",1,"Screen 1","advancementZone","continue_button",48416.2531382934,NA,NA,"",NA,"ReadyForNextTextScreen",NA
"18",1601676349443,2,"03/10/2020 00:05:49","BLIND",1317396,NA,"complete",NA,"5f779292be4d822f10e2171c","computer","Desktop or Laptop","Windows 10","Chrome 85.0.4183.121","1920x1080","1920x937","FeedbackOnly","FeedbackOnly","FeedbackOnly",5,"1",1,"Text","advancementZone","continue_button",48416.2531382934,NA,NA,"",NA,"BotoxFeedbackOnly",NA
"19",1601676351275,2,"03/10/2020 00:05:51","BLIND",1317396,NA,"complete",NA,"5f779292be4d822f10e2171c","computer","Desktop or Laptop","Windows 10","Chrome 85.0.4183.121","1920x1080","1920x937","FeedbackOnly","FeedbackOnly","FeedbackOnly",5,"1",2,"JoL1","One","response_button_text",48416.2531382934,NA,NA,"4",1,"BotoxFeedbackOnly",NA
"2",1601676082101,2,"03/10/2020 00:01:22","BLIND",1317396,NA,"complete",NA,"5f779292be4d822f10e2171c","computer","Desktop or Laptop","Windows 10","Chrome 85.0.4183.121","1920x1080","1920x937","FeedbackOnly","FeedbackOnly","FeedbackOnly",7,"1",1,"Text","advancementZone","continue_button",48416.2531382934,NA,NA,"",NA,"MuziekFeedbackOnly",NA
"20",1601676376987,2,"03/10/2020 00:06:16","BLIND",1317396,NA,"complete",NA,"5f779292be4d822f10e2171c","computer","Desktop or Laptop","Windows 10","Chrome 85.0.4183.121","1920x1080","1920x937","FeedbackOnly","FeedbackOnly","FeedbackOnly",5,"1",3,"Feedback","Zone1","continue_button",48416.2531382934,NA,NA,"",NA,"BotoxFeedbackOnly",NA
"21",1601676378035,2,"03/10/2020 00:06:18","BLIND",1317396,NA,"complete",NA,"5f779292be4d822f10e2171c","computer","Desktop or Laptop","Windows 10","Chrome 85.0.4183.121","1920x1080","1920x937","FeedbackOnly","FeedbackOnly","FeedbackOnly",5,"1",4,"JoL2","Two","response_button_text",48416.2531382934,NA,NA,"4",1,"BotoxFeedbackOnly",NA
"22",1601676379243,2,"03/10/2020 00:06:19","BLIND",1317396,NA,"complete",NA,"5f779292be4d822f10e2171c","computer","Desktop or Laptop","Windows 10","Chrome 85.0.4183.121","1920x1080","1920x937","FeedbackOnly","FeedbackOnly","FeedbackOnly",5,"1",5,"InstructieToets","advancementZone","continue_button",48416.2531382934,NA,NA,"",NA,"BotoxFeedbackOnly",NA
"23",1601676446576,2,"03/10/2020 00:07:26","BLIND",1317396,NA,"complete",NA,"5f779292be4d822f10e2171c","computer","Desktop or Laptop","Windows 10","Chrome 85.0.4183.121","1920x1080","1920x937","FeedbackOnly","FeedbackOnly","FeedbackOnly",5,"1",6,"Test","buttonA","response_text_area",48416.2531382934,NA,NA,"L4X5",NA,"BotoxFeedbackOnly",NA
"24",1601676446577,2,"03/10/2020 00:07:26","BLIND",1317396,NA,"complete",NA,"5f779292be4d822f10e2171c","computer","Desktop or Laptop","Windows 10","Chrome 85.0.4183.121","1920x1080","1920x937","FeedbackOnly","FeedbackOnly","FeedbackOnly",5,"1",6,"Test","buttonB","continue_button",48416.2531382934,NA,NA,"",NA,"BotoxFeedbackOnly",NA
"25",1601676448619,2,"03/10/2020 00:07:28","BLIND",1317396,NA,"complete",NA,"5f779292be4d822f10e2171c","computer","Desktop or Laptop","Windows 10","Chrome 85.0.4183.121","1920x1080","1920x937","FeedbackOnly","FeedbackOnly","FeedbackOnly",6,"3",1,"Screen 1","advancementZone","continue_button",48416.2531382934,NA,NA,"",NA,"ReadyForNextTextScreen",NA
"26",1601676482923,2,"03/10/2020 00:08:02","BLIND",1317396,NA,"complete",NA,"5f779292be4d822f10e2171c","computer","Desktop or Laptop","Windows 10","Chrome 85.0.4183.121","1920x1080","1920x937","FeedbackOnly","FeedbackOnly","FeedbackOnly",3,"1",1,"Text","advancementZone","continue_button",48416.2531382934,NA,NA,"",NA,"BetonFeedbackOnly",NA
"27",1601676485186,2,"03/10/2020 00:08:05","BLIND",1317396,NA,"complete",NA,"5f779292be4d822f10e2171c","computer","Desktop or Laptop","Windows 10","Chrome 85.0.4183.121","1920x1080","1920x937","FeedbackOnly","FeedbackOnly","FeedbackOnly",3,"1",2,"JoL1","One","response_button_text",48416.2531382934,NA,NA,"4",1,"BetonFeedbackOnly",NA
"28",1601676505347,2,"03/10/2020 00:08:25","BLIND",1317396,NA,"complete",NA,"5f779292be4d822f10e2171c","computer","Desktop or Laptop","Windows 10","Chrome 85.0.4183.121","1920x1080","1920x937","FeedbackOnly","FeedbackOnly","FeedbackOnly",3,"1",3,"Feedback","Zone1","continue_button",48416.2531382934,NA,NA,"",NA,"BetonFeedbackOnly",NA
"29",1601676510451,2,"03/10/2020 00:08:30","BLIND",1317396,NA,"complete",NA,"5f779292be4d822f10e2171c","computer","Desktop or Laptop","Windows 10","Chrome 85.0.4183.121","1920x1080","1920x937","FeedbackOnly","FeedbackOnly","FeedbackOnly",3,"1",4,"JoL2","Three","response_button_text",48416.2531382934,NA,NA,"4",1,"BetonFeedbackOnly",NA
"3",1601676086256,2,"03/10/2020 00:01:26","BLIND",1317396,NA,"complete",NA,"5f779292be4d822f10e2171c","computer","Desktop or Laptop","Windows 10","Chrome 85.0.4183.121","1920x1080","1920x937","FeedbackOnly","FeedbackOnly","FeedbackOnly",7,"1",2,"JoL1","One","response_button_text",48416.2531382934,NA,NA,"4",1,"MuziekFeedbackOnly",NA
"30",1601676516403,2,"03/10/2020 00:08:36","BLIND",1317396,NA,"complete",NA,"5f779292be4d822f10e2171c","computer","Desktop or Laptop","Windows 10","Chrome 85.0.4183.121","1920x1080","1920x937","FeedbackOnly","FeedbackOnly","FeedbackOnly",3,"1",5,"InstructieToets","advancementZone","continue_button",48416.2531382934,NA,NA,"",NA,"BetonFeedbackOnly",NA
"31",1601676546307,2,"03/10/2020 00:09:06","BLIND",1317396,NA,"complete",NA,"5f779292be4d822f10e2171c","computer","Desktop or Laptop","Windows 10","Chrome 85.0.4183.121","1920x1080","1920x937","FeedbackOnly","FeedbackOnly","FeedbackOnly",3,"1",6,"Test","buttonA","response_text_area",48416.2531382934,NA,NA,"cc",NA,"BetonFeedbackOnly",NA
"32",1601676546308,2,"03/10/2020 00:09:06","BLIND",1317396,NA,"complete",NA,"5f779292be4d822f10e2171c","computer","Desktop or Laptop","Windows 10","Chrome 85.0.4183.121","1920x1080","1920x937","FeedbackOnly","FeedbackOnly","FeedbackOnly",3,"1",6,"Test","buttonB","continue_button",48416.2531382934,NA,NA,"",NA,"BetonFeedbackOnly",NA
"33",1601676548002,2,"03/10/2020 00:09:08","BLIND",1317396,NA,"complete",NA,"5f779292be4d822f10e2171c","computer","Desktop or Laptop","Windows 10","Chrome 85.0.4183.121","1920x1080","1920x937","FeedbackOnly","FeedbackOnly","FeedbackOnly",8,"4",1,"Screen 1","advancementZone","continue_button",48416.2531382934,NA,NA,"",NA,"ReadyForNextTextScreen",NA
"34",1601676599050,2,"03/10/2020 00:09:59","BLIND",1317396,NA,"complete",NA,"5f779292be4d822f10e2171c","computer","Desktop or Laptop","Windows 10","Chrome 85.0.4183.121","1920x1080","1920x937","FeedbackOnly","FeedbackOnly","FeedbackOnly",11,"1",1,"Text","advancementZone","continue_button",48416.2531382934,NA,NA,"",NA,"SuezFeedbackOnly",NA
"35",1601676604898,2,"03/10/2020 00:10:04","BLIND",1317396,NA,"complete",NA,"5f779292be4d822f10e2171c","computer","Desktop or Laptop","Windows 10","Chrome 85.0.4183.121","1920x1080","1920x937","FeedbackOnly","FeedbackOnly","FeedbackOnly",11,"1",2,"JoL1","Two","response_button_text",48416.2531382934,NA,NA,"4",1,"SuezFeedbackOnly",NA
"36",1601676625322,2,"03/10/2020 00:10:25","BLIND",1317396,NA,"complete",NA,"5f779292be4d822f10e2171c","computer","Desktop or Laptop","Windows 10","Chrome 85.0.4183.121","1920x1080","1920x937","FeedbackOnly","FeedbackOnly","FeedbackOnly",11,"1",3,"Feedback","Zone1","continue_button",48416.2531382934,NA,NA,"",NA,"SuezFeedbackOnly",NA
"37",1601676628123,2,"03/10/2020 00:10:28","BLIND",1317396,NA,"complete",NA,"5f779292be4d822f10e2171c","computer","Desktop or Laptop","Windows 10","Chrome 85.0.4183.121","1920x1080","1920x937","FeedbackOnly","FeedbackOnly","FeedbackOnly",11,"1",4,"JoL2","Three","response_button_text",48416.2531382934,NA,NA,"4",1,"SuezFeedbackOnly",NA
"38",1601676630170,2,"03/10/2020 00:10:30","BLIND",1317396,NA,"complete",NA,"5f779292be4d822f10e2171c","computer","Desktop or Laptop","Windows 10","Chrome 85.0.4183.121","1920x1080","1920x937","FeedbackOnly","FeedbackOnly","FeedbackOnly",11,"1",5,"InstructieToets","advancementZone","continue_button",48416.2531382934,NA,NA,"",NA,"SuezFeedbackOnly",NA
"39",1601676685256,2,"03/10/2020 00:11:25","BLIND",1317396,NA,"complete",NA,"5f779292be4d822f10e2171c","computer","Desktop or Laptop","Windows 10","Chrome 85.0.4183.121","1920x1080","1920x937","FeedbackOnly","FeedbackOnly","FeedbackOnly",11,"1",6,"Test","buttonA","response_text_area",48416.2531382934,NA,NA,"lUxp0y4vW",NA,"SuezFeedbackOnly",NA
"4",1601676104940,2,"03/10/2020 00:01:44","BLIND",1317396,NA,"complete",NA,"5f779292be4d822f10e2171c","computer","Desktop or Laptop","Windows 10","Chrome 85.0.4183.121","1920x1080","1920x937","FeedbackOnly","FeedbackOnly","FeedbackOnly",7,"1",3,"Feedback","Zone1","continue_button",48416.2531382934,NA,NA,"",NA,"MuziekFeedbackOnly",NA
"40",1601676685257,2,"03/10/2020 00:11:25","BLIND",1317396,NA,"complete",NA,"5f779292be4d822f10e2171c","computer","Desktop or Laptop","Windows 10","Chrome 85.0.4183.121","1920x1080","1920x937","FeedbackOnly","FeedbackOnly","FeedbackOnly",11,"1",6,"Test","buttonB","continue_button",48416.2531382934,NA,NA,"",NA,"SuezFeedbackOnly",NA
"41",1601676686618,2,"03/10/2020 00:11:26","BLIND",1317396,NA,"complete",NA,"5f779292be4d822f10e2171c","computer","Desktop or Laptop","Windows 10","Chrome 85.0.4183.121","1920x1080","1920x937","FeedbackOnly","FeedbackOnly","FeedbackOnly",10,"5",1,"Screen 1","advancementZone","continue_button",48416.2531382934,NA,NA,"",NA,"ReadyForNextTextScreen",NA
"42",1601676726714,2,"03/10/2020 00:12:06","BLIND",1317396,NA,"complete",NA,"5f779292be4d822f10e2171c","computer","Desktop or Laptop","Windows 10","Chrome 85.0.4183.121","1920x1080","1920x937","FeedbackOnly","FeedbackOnly","FeedbackOnly",1,"1",1,"Text","advancementZone","continue_button",48416.2531382934,NA,NA,"",NA,"MetroFeedbackOnly",NA
"43",1601676727834,2,"03/10/2020 00:12:07","BLIND",1317396,NA,"complete",NA,"5f779292be4d822f10e2171c","computer","Desktop or Laptop","Windows 10","Chrome 85.0.4183.121","1920x1080","1920x937","FeedbackOnly","FeedbackOnly","FeedbackOnly",1,"1",2,"JoL1","Two","response_button_text",48416.2531382934,NA,NA,"4",1,"MetroFeedbackOnly",NA
"44",1601676741986,2,"03/10/2020 00:12:21","BLIND",1317396,NA,"complete",NA,"5f779292be4d822f10e2171c","computer","Desktop or Laptop","Windows 10","Chrome 85.0.4183.121","1920x1080","1920x937","FeedbackOnly","FeedbackOnly","FeedbackOnly",1,"1",3,"Feedback","Zone3","continue_button",48416.2531382934,NA,NA,"",NA,"MetroFeedbackOnly",NA
"45",1601676743698,2,"03/10/2020 00:12:23","BLIND",1317396,NA,"complete",NA,"5f779292be4d822f10e2171c","computer","Desktop or Laptop","Windows 10","Chrome 85.0.4183.121","1920x1080","1920x937","FeedbackOnly","FeedbackOnly","FeedbackOnly",1,"1",4,"JoL2","Three","response_button_text",48416.2531382934,NA,NA,"4",1,"MetroFeedbackOnly",NA
"46",1601676745082,2,"03/10/2020 00:12:25","BLIND",1317396,NA,"complete",NA,"5f779292be4d822f10e2171c","computer","Desktop or Laptop","Windows 10","Chrome 85.0.4183.121","1920x1080","1920x937","FeedbackOnly","FeedbackOnly","FeedbackOnly",1,"1",5,"InstructieToets","advancementZone","continue_button",48416.2531382934,NA,NA,"",NA,"MetroFeedbackOnly",NA
"47",1601676780707,2,"03/10/2020 00:13:00","BLIND",1317396,NA,"complete",NA,"5f779292be4d822f10e2171c","computer","Desktop or Laptop","Windows 10","Chrome 85.0.4183.121","1920x1080","1920x937","FeedbackOnly","FeedbackOnly","FeedbackOnly",1,"1",6,"Test","buttonA","response_text_area",48416.2531382934,NA,NA,"3pb7W",NA,"MetroFeedbackOnly",NA
"48",1601676780708,2,"03/10/2020 00:13:00","BLIND",1317396,NA,"complete",NA,"5f779292be4d822f10e2171c","computer","Desktop or Laptop","Windows 10","Chrome 85.0.4183.121","1920x1080","1920x937","FeedbackOnly","FeedbackOnly","FeedbackOnly",1,"1",6,"Test","buttonB","continue_button",48416.2531382934,NA,NA,"",NA,"MetroFeedbackOnly",NA
"49",1601676780711,2,"03/10/2020 00:13:00","BLIND",1317396,NA,"complete",NA,"5f779292be4d822f10e2171c","computer","Desktop or Laptop","Windows 10","Chrome 85.0.4183.121","1920x1080","1920x937","FeedbackOnly","FeedbackOnly","",NA,"END TASK",NA,"","","",749347,NA,NA,"",NA,"",NA
"5",1601676106299,2,"03/10/2020 00:01:46","BLIND",1317396,NA,"complete",NA,"5f779292be4d822f10e2171c","computer","Desktop or Laptop","Windows 10","Chrome 85.0.4183.121","1920x1080","1920x937","FeedbackOnly","FeedbackOnly","FeedbackOnly",7,"1",4,"JoL2","Two","response_button_text",48416.2531382934,NA,NA,"4",1,"MuziekFeedbackOnly",NA
"6",1601676109499,2,"03/10/2020 00:01:49","BLIND",1317396,NA,"complete",NA,"5f779292be4d822f10e2171c","computer","Desktop or Laptop","Windows 10","Chrome 85.0.4183.121","1920x1080","1920x937","FeedbackOnly","FeedbackOnly","FeedbackOnly",7,"1",5,"InstructieToets","advancementZone","continue_button",48416.2531382934,NA,NA,"",NA,"MuziekFeedbackOnly",NA
"7",1601676151770,2,"03/10/2020 00:02:31","BLIND",1317396,NA,"complete",NA,"5f779292be4d822f10e2171c","computer","Desktop or Laptop","Windows 10","Chrome 85.0.4183.121","1920x1080","1920x937","FeedbackOnly","FeedbackOnly","FeedbackOnly",7,"1",6,"Test","buttonA","response_text_area",48416.2531382934,NA,NA,"IuAKn1FcBn",NA,"MuziekFeedbackOnly",NA
"8",1601676151770,2,"03/10/2020 00:02:31","BLIND",1317396,NA,"complete",NA,"5f779292be4d822f10e2171c","computer","Desktop or Laptop","Windows 10","Chrome 85.0.4183.121","1920x1080","1920x937","FeedbackOnly","FeedbackOnly","FeedbackOnly",7,"1",6,"Test","buttonB","continue_button",48416.2531382934,NA,NA,"",NA,"MuziekFeedbackOnly",NA
"9",1601676154667,2,"03/10/2020 00:02:34","BLIND",1317396,NA,"complete",NA,"5f779292be4d822f10e2171c","computer","Desktop or Laptop","Windows 10","Chrome 85.0.4183.121","1920x1080","1920x937","FeedbackOnly","FeedbackOnly","FeedbackOnly",2,"1",1,"Screen 1","advancementZone","continue_button",48416.2531382934,NA,NA,"",NA,"ReadyForNextTextScreen",NA
"1",1601666969731,2,"02/10/2020 21:29:29","BLIND",2134522,NA,"complete",NA,"5f777dca307b0c2ccb5c1e44","computer","Desktop or Laptop","Windows 10","Edge 85.0.564.63","1536x864","1536x754","FeedbackOnly","FeedbackOnly","",NA,"BEGIN TASK",NA,"","","",NA,NA,NA,"",NA,"",NA
"10",1601667220928,2,"02/10/2020 21:33:40","BLIND",2134522,NA,"complete",NA,"5f777dca307b0c2ccb5c1e44","computer","Desktop or Laptop","Windows 10","Edge 85.0.564.63","1536x864","1536x754","FeedbackOnly","FeedbackOnly","FeedbackOnly",7,"1",1,"Text","advancementZone","continue_button",48416.2531382934,NA,NA,"",NA,"MuziekFeedbackOnly",NA
"11",1601667223242,2,"02/10/2020 21:33:43","BLIND",2134522,NA,"complete",NA,"5f777dca307b0c2ccb5c1e44","computer","Desktop or Laptop","Windows 10","Edge 85.0.564.63","1536x864","1536x754","FeedbackOnly","FeedbackOnly","FeedbackOnly",7,"1",2,"JoL1","Three","response_button_text",48416.2531382934,NA,NA,"4",1,"MuziekFeedbackOnly",NA
"12",1601667237781,2,"02/10/2020 21:33:57","BLIND",2134522,NA,"complete",NA,"5f777dca307b0c2ccb5c1e44","computer","Desktop or Laptop","Windows 10","Edge 85.0.564.63","1536x864","1536x754","FeedbackOnly","FeedbackOnly","FeedbackOnly",7,"1",3,"Feedback","Zone1","continue_button",48416.2531382934,NA,NA,"",NA,"MuziekFeedbackOnly",NA
"13",1601667240857,2,"02/10/2020 21:34:00","BLIND",2134522,NA,"complete",NA,"5f777dca307b0c2ccb5c1e44","computer","Desktop or Laptop","Windows 10","Edge 85.0.564.63","1536x864","1536x754","FeedbackOnly","FeedbackOnly","FeedbackOnly",7,"1",4,"JoL2","Three","response_button_text",48416.2531382934,NA,NA,"4",1,"MuziekFeedbackOnly",NA
"14",1601667242285,2,"02/10/2020 21:34:02","BLIND",2134522,NA,"complete",NA,"5f777dca307b0c2ccb5c1e44","computer","Desktop or Laptop","Windows 10","Edge 85.0.564.63","1536x864","1536x754","FeedbackOnly","FeedbackOnly","FeedbackOnly",7,"1",5,"InstructieToets","advancementZone","continue_button",48416.2531382934,NA,NA,"",NA,"MuziekFeedbackOnly",NA
"15",1601667379997,2,"02/10/2020 21:36:19","BLIND",2134522,NA,"complete",NA,"5f777dca307b0c2ccb5c1e44","computer","Desktop or Laptop","Windows 10","Edge 85.0.564.63","1536x864","1536x754","FeedbackOnly","FeedbackOnly","FeedbackOnly",7,"1",6,"Test","buttonA","response_text_area",48416.2531382934,NA,NA,"c2kaeF",NA,"MuziekFeedbackOnly",NA
"16",1601667380001,2,"02/10/2020 21:36:20","BLIND",2134522,NA,"complete",NA,"5f777dca307b0c2ccb5c1e44","computer","Desktop or Laptop","Windows 10","Edge 85.0.564.63","1536x864","1536x754","FeedbackOnly","FeedbackOnly","FeedbackOnly",7,"1",6,"Test","buttonB","continue_button",48416.2531382934,NA,NA,"",NA,"MuziekFeedbackOnly",NA
"17",1601667381756,2,"02/10/2020 21:36:21","BLIND",2134522,NA,"complete",NA,"5f777dca307b0c2ccb5c1e44","computer","Desktop or Laptop","Windows 10","Edge 85.0.564.63","1536x864","1536x754","FeedbackOnly","FeedbackOnly","FeedbackOnly",4,"2",1,"Screen 1","advancementZone","continue_button",48416.2531382934,NA,NA,"",NA,"ReadyForNextTextScreen",NA
"18",1601667456266,2,"02/10/2020 21:37:36","BLIND",2134522,NA,"complete",NA,"5f777dca307b0c2ccb5c1e44","computer","Desktop or Laptop","Windows 10","Edge 85.0.564.63","1536x864","1536x754","FeedbackOnly","FeedbackOnly","FeedbackOnly",5,"1",1,"Text","advancementZone","continue_button",48416.2531382934,NA,NA,"",NA,"BotoxFeedbackOnly",NA
"19",1601667458197,2,"02/10/2020 21:37:38","BLIND",2134522,NA,"complete",NA,"5f777dca307b0c2ccb5c1e44","computer","Desktop or Laptop","Windows 10","Edge 85.0.564.63","1536x864","1536x754","FeedbackOnly","FeedbackOnly","FeedbackOnly",5,"1",2,"JoL1","Three","response_button_text",48416.2531382934,NA,NA,"4",1,"BotoxFeedbackOnly",NA
"2",1601667034377,2,"02/10/2020 21:30:34","BLIND",2134522,NA,"complete",NA,"5f777dca307b0c2ccb5c1e44","computer","Desktop or Laptop","Windows 10","Edge 85.0.564.63","1536x864","1536x754","FeedbackOnly","FeedbackOnly","FeedbackOnly",1,"1",1,"Text","advancementZone","continue_button",48416.2531382934,NA,NA,"",NA,"MetroFeedbackOnly",NA
"20",1601667495890,2,"02/10/2020 21:38:15","BLIND",2134522,NA,"complete",NA,"5f777dca307b0c2ccb5c1e44","computer","Desktop or Laptop","Windows 10","Edge 85.0.564.63","1536x864","1536x754","FeedbackOnly","FeedbackOnly","FeedbackOnly",5,"1",3,"Feedback","Zone1","continue_button",48416.2531382934,NA,NA,"",NA,"BotoxFeedbackOnly",NA
"21",1601667497098,2,"02/10/2020 21:38:17","BLIND",2134522,NA,"complete",NA,"5f777dca307b0c2ccb5c1e44","computer","Desktop or Laptop","Windows 10","Edge 85.0.564.63","1536x864","1536x754","FeedbackOnly","FeedbackOnly","FeedbackOnly",5,"1",4,"JoL2","Three","response_button_text",48416.2531382934,NA,NA,"4",1,"BotoxFeedbackOnly",NA
"22",1601667503540,2,"02/10/2020 21:38:23","BLIND",2134522,NA,"complete",NA,"5f777dca307b0c2ccb5c1e44","computer","Desktop or Laptop","Windows 10","Edge 85.0.564.63","1536x864","1536x754","FeedbackOnly","FeedbackOnly","FeedbackOnly",5,"1",5,"InstructieToets","advancementZone","continue_button",48416.2531382934,NA,NA,"",NA,"BotoxFeedbackOnly",NA
"23",1601667589944,2,"02/10/2020 21:39:49","BLIND",2134522,NA,"complete",NA,"5f777dca307b0c2ccb5c1e44","computer","Desktop or Laptop","Windows 10","Edge 85.0.564.63","1536x864","1536x754","FeedbackOnly","FeedbackOnly","FeedbackOnly",5,"1",6,"Test","buttonA","response_text_area",48416.2531382934,NA,NA,"rCBM7Q",NA,"BotoxFeedbackOnly",NA
"24",1601667589945,2,"02/10/2020 21:39:49","BLIND",2134522,NA,"complete",NA,"5f777dca307b0c2ccb5c1e44","computer","Desktop or Laptop","Windows 10","Edge 85.0.564.63","1536x864","1536x754","FeedbackOnly","FeedbackOnly","FeedbackOnly",5,"1",6,"Test","buttonB","continue_button",48416.2531382934,NA,NA,"",NA,"BotoxFeedbackOnly",NA
"25",1601667591728,2,"02/10/2020 21:39:51","BLIND",2134522,NA,"complete",NA,"5f777dca307b0c2ccb5c1e44","computer","Desktop or Laptop","Windows 10","Edge 85.0.564.63","1536x864","1536x754","FeedbackOnly","FeedbackOnly","FeedbackOnly",6,"3",1,"Screen 1","advancementZone","continue_button",48416.2531382934,NA,NA,"",NA,"ReadyForNextTextScreen",NA
"26",1601667659056,2,"02/10/2020 21:40:59","BLIND",2134522,NA,"complete",NA,"5f777dca307b0c2ccb5c1e44","computer","Desktop or Laptop","Windows 10","Edge 85.0.564.63","1536x864","1536x754","FeedbackOnly","FeedbackOnly","FeedbackOnly",3,"1",1,"Text","advancementZone","continue_button",48416.2531382934,NA,NA,"",NA,"BetonFeedbackOnly",NA
"27",1601667661378,2,"02/10/2020 21:41:01","BLIND",2134522,NA,"complete",NA,"5f777dca307b0c2ccb5c1e44","computer","Desktop or Laptop","Windows 10","Edge 85.0.564.63","1536x864","1536x754","FeedbackOnly","FeedbackOnly","FeedbackOnly",3,"1",2,"JoL1","Two","response_button_text",48416.2531382934,NA,NA,"4",1,"BetonFeedbackOnly",NA
"28",1601667684153,2,"02/10/2020 21:41:24","BLIND",2134522,NA,"complete",NA,"5f777dca307b0c2ccb5c1e44","computer","Desktop or Laptop","Windows 10","Edge 85.0.564.63","1536x864","1536x754","FeedbackOnly","FeedbackOnly","FeedbackOnly",3,"1",3,"Feedback","Zone1","continue_button",48416.2531382934,NA,NA,"",NA,"BetonFeedbackOnly",NA
"29",1601667685459,2,"02/10/2020 21:41:25","BLIND",2134522,NA,"complete",NA,"5f777dca307b0c2ccb5c1e44","computer","Desktop or Laptop","Windows 10","Edge 85.0.564.63","1536x864","1536x754","FeedbackOnly","FeedbackOnly","FeedbackOnly",3,"1",4,"JoL2","Three","response_button_text",48416.2531382934,NA,NA,"4",1,"BetonFeedbackOnly",NA
"3",1601667035859,2,"02/10/2020 21:30:35","BLIND",2134522,NA,"complete",NA,"5f777dca307b0c2ccb5c1e44","computer","Desktop or Laptop","Windows 10","Edge 85.0.564.63","1536x864","1536x754","FeedbackOnly","FeedbackOnly","FeedbackOnly",1,"1",2,"JoL1","Three","response_button_text",48416.2531382934,NA,NA,"4",1,"MetroFeedbackOnly",NA
"30",1601667687762,2,"02/10/2020 21:41:27","BLIND",2134522,NA,"complete",NA,"5f777dca307b0c2ccb5c1e44","computer","Desktop or Laptop","Windows 10","Edge 85.0.564.63","1536x864","1536x754","FeedbackOnly","FeedbackOnly","FeedbackOnly",3,"1",5,"InstructieToets","advancementZone","continue_button",48416.2531382934,NA,NA,"",NA,"BetonFeedbackOnly",NA
"31",1601667800656,2,"02/10/2020 21:43:20","BLIND",2134522,NA,"complete",NA,"5f777dca307b0c2ccb5c1e44","computer","Desktop or Laptop","Windows 10","Edge 85.0.564.63","1536x864","1536x754","FeedbackOnly","FeedbackOnly","FeedbackOnly",3,"1",6,"Test","buttonA","response_text_area",48416.2531382934,NA,NA,"7sS",NA,"BetonFeedbackOnly",NA
"32",1601667800658,2,"02/10/2020 21:43:20","BLIND",2134522,NA,"complete",NA,"5f777dca307b0c2ccb5c1e44","computer","Desktop or Laptop","Windows 10","Edge 85.0.564.63","1536x864","1536x754","FeedbackOnly","FeedbackOnly","FeedbackOnly",3,"1",6,"Test","buttonB","continue_button",48416.2531382934,NA,NA,"",NA,"BetonFeedbackOnly",NA
"33",1601667802522,2,"02/10/2020 21:43:22","BLIND",2134522,NA,"complete",NA,"5f777dca307b0c2ccb5c1e44","computer","Desktop or Laptop","Windows 10","Edge 85.0.564.63","1536x864","1536x754","FeedbackOnly","FeedbackOnly","FeedbackOnly",8,"4",1,"Screen 1","advancementZone","continue_button",48416.2531382934,NA,NA,"",NA,"ReadyForNextTextScreen",NA
"34",1601667876822,2,"02/10/2020 21:44:36","BLIND",2134522,NA,"complete",NA,"5f777dca307b0c2ccb5c1e44","computer","Desktop or Laptop","Windows 10","Edge 85.0.564.63","1536x864","1536x754","FeedbackOnly","FeedbackOnly","FeedbackOnly",9,"1",1,"Text","advancementZone","continue_button",48416.2531382934,NA,NA,"",NA,"GeldFeedbackOnly",NA
"35",1601667878608,2,"02/10/2020 21:44:38","BLIND",2134522,NA,"complete",NA,"5f777dca307b0c2ccb5c1e44","computer","Desktop or Laptop","Windows 10","Edge 85.0.564.63","1536x864","1536x754","FeedbackOnly","FeedbackOnly","FeedbackOnly",9,"1",2,"JoL1","Three","response_button_text",48416.2531382934,NA,NA,"4",1,"GeldFeedbackOnly",NA
"36",1601667894537,2,"02/10/2020 21:44:54","BLIND",2134522,NA,"complete",NA,"5f777dca307b0c2ccb5c1e44","computer","Desktop or Laptop","Windows 10","Edge 85.0.564.63","1536x864","1536x754","FeedbackOnly","FeedbackOnly","FeedbackOnly",9,"1",3,"Feedback","Zone1","continue_button",48416.2531382934,NA,NA,"",NA,"GeldFeedbackOnly",NA
"37",1601667895667,2,"02/10/2020 21:44:55","BLIND",2134522,NA,"complete",NA,"5f777dca307b0c2ccb5c1e44","computer","Desktop or Laptop","Windows 10","Edge 85.0.564.63","1536x864","1536x754","FeedbackOnly","FeedbackOnly","FeedbackOnly",9,"1",4,"JoL2","Three","response_button_text",48416.2531382934,NA,NA,"4",1,"GeldFeedbackOnly",NA
"38",1601667897939,2,"02/10/2020 21:44:57","BLIND",2134522,NA,"complete",NA,"5f777dca307b0c2ccb5c1e44","computer","Desktop or Laptop","Windows 10","Edge 85.0.564.63","1536x864","1536x754","FeedbackOnly","FeedbackOnly","FeedbackOnly",9,"1",5,"ToetsInstructies","advancementZone","continue_button",48416.2531382934,NA,NA,"",NA,"GeldFeedbackOnly",NA
"39",1601668009602,2,"02/10/2020 21:46:49","BLIND",2134522,NA,"complete",NA,"5f777dca307b0c2ccb5c1e44","computer","Desktop or Laptop","Windows 10","Edge 85.0.564.63","1536x864","1536x754","FeedbackOnly","FeedbackOnly","FeedbackOnly",9,"1",6,"Test","buttonA","response_text_area",48416.2531382934,NA,NA,"ikYjneev",NA,"GeldFeedbackOnly",NA
"4",1601667044487,2,"02/10/2020 21:30:44","BLIND",2134522,NA,"complete",NA,"5f777dca307b0c2ccb5c1e44","computer","Desktop or Laptop","Windows 10","Edge 85.0.564.63","1536x864","1536x754","FeedbackOnly","FeedbackOnly","FeedbackOnly",1,"1",3,"Feedback","Zone3","continue_button",48416.2531382934,NA,NA,"",NA,"MetroFeedbackOnly",NA
"40",1601668009604,2,"02/10/2020 21:46:49","BLIND",2134522,NA,"complete",NA,"5f777dca307b0c2ccb5c1e44","computer","Desktop or Laptop","Windows 10","Edge 85.0.564.63","1536x864","1536x754","FeedbackOnly","FeedbackOnly","FeedbackOnly",9,"1",6,"Test","buttonB","continue_button",48416.2531382934,NA,NA,"",NA,"GeldFeedbackOnly",NA
"41",1601668010776,2,"02/10/2020 21:46:50","BLIND",2134522,NA,"complete",NA,"5f777dca307b0c2ccb5c1e44","computer","Desktop or Laptop","Windows 10","Edge 85.0.564.63","1536x864","1536x754","FeedbackOnly","FeedbackOnly","FeedbackOnly",10,"5",1,"Screen 1","advancementZone","continue_button",48416.2531382934,NA,NA,"",NA,"ReadyForNextTextScreen",NA
"42",1601668085398,2,"02/10/2020 21:48:05","BLIND",2134522,NA,"complete",NA,"5f777dca307b0c2ccb5c1e44","computer","Desktop or Laptop","Windows 10","Edge 85.0.564.63","1536x864","1536x754","FeedbackOnly","FeedbackOnly","FeedbackOnly",11,"1",1,"Text","advancementZone","continue_button",48416.2531382934,NA,NA,"",NA,"SuezFeedbackOnly",NA
"43",1601668086878,2,"02/10/2020 21:48:06","BLIND",2134522,NA,"complete",NA,"5f777dca307b0c2ccb5c1e44","computer","Desktop or Laptop","Windows 10","Edge 85.0.564.63","1536x864","1536x754","FeedbackOnly","FeedbackOnly","FeedbackOnly",11,"1",2,"JoL1","Two","response_button_text",48416.2531382934,NA,NA,"4",1,"SuezFeedbackOnly",NA
"44",1601668103176,2,"02/10/2020 21:48:23","BLIND",2134522,NA,"complete",NA,"5f777dca307b0c2ccb5c1e44","computer","Desktop or Laptop","Windows 10","Edge 85.0.564.63","1536x864","1536x754","FeedbackOnly","FeedbackOnly","FeedbackOnly",11,"1",3,"Feedback","Zone1","continue_button",48416.2531382934,NA,NA,"",NA,"SuezFeedbackOnly",NA
"45",1601668104298,2,"02/10/2020 21:48:24","BLIND",2134522,NA,"complete",NA,"5f777dca307b0c2ccb5c1e44","computer","Desktop or Laptop","Windows 10","Edge 85.0.564.63","1536x864","1536x754","FeedbackOnly","FeedbackOnly","FeedbackOnly",11,"1",4,"JoL2","Three","response_button_text",48416.2531382934,NA,NA,"4",1,"SuezFeedbackOnly",NA
"46",1601668105416,2,"02/10/2020 21:48:25","BLIND",2134522,NA,"complete",NA,"5f777dca307b0c2ccb5c1e44","computer","Desktop or Laptop","Windows 10","Edge 85.0.564.63","1536x864","1536x754","FeedbackOnly","FeedbackOnly","FeedbackOnly",11,"1",5,"InstructieToets","advancementZone","continue_button",48416.2531382934,NA,NA,"",NA,"SuezFeedbackOnly",NA
"47",1601668269140,2,"02/10/2020 21:51:09","BLIND",2134522,NA,"complete",NA,"5f777dca307b0c2ccb5c1e44","computer","Desktop or Laptop","Windows 10","Edge 85.0.564.63","1536x864","1536x754","FeedbackOnly","FeedbackOnly","FeedbackOnly",11,"1",6,"Test","buttonA","response_text_area",48416.2531382934,NA,NA,"RT",NA,"SuezFeedbackOnly",NA
"48",1601668269144,2,"02/10/2020 21:51:09","BLIND",2134522,NA,"complete",NA,"5f777dca307b0c2ccb5c1e44","computer","Desktop or Laptop","Windows 10","Edge 85.0.564.63","1536x864","1536x754","FeedbackOnly","FeedbackOnly","FeedbackOnly",11,"1",6,"Test","buttonB","continue_button",48416.2531382934,NA,NA,"",NA,"SuezFeedbackOnly",NA
"49",1601668269147,2,"02/10/2020 21:51:09","BLIND",2134522,NA,"complete",NA,"5f777dca307b0c2ccb5c1e44","computer","Desktop or Laptop","Windows 10","Edge 85.0.564.63","1536x864","1536x754","FeedbackOnly","FeedbackOnly","",NA,"END TASK",NA,"","","",1299416,NA,NA,"",NA,"",NA
"5",1601667047660,2,"02/10/2020 21:30:47","BLIND",2134522,NA,"complete",NA,"5f777dca307b0c2ccb5c1e44","computer","Desktop or Laptop","Windows 10","Edge 85.0.564.63","1536x864","1536x754","FeedbackOnly","FeedbackOnly","FeedbackOnly",1,"1",4,"JoL2","Four","response_button_text",48416.2531382934,NA,NA,"4",1,"MetroFeedbackOnly",NA
"6",1601667050233,2,"02/10/2020 21:30:50","BLIND",2134522,NA,"complete",NA,"5f777dca307b0c2ccb5c1e44","computer","Desktop or Laptop","Windows 10","Edge 85.0.564.63","1536x864","1536x754","FeedbackOnly","FeedbackOnly","FeedbackOnly",1,"1",5,"InstructieToets","advancementZone","continue_button",48416.2531382934,NA,NA,"",NA,"MetroFeedbackOnly",NA
"7",1601667161809,2,"02/10/2020 21:32:41","BLIND",2134522,NA,"complete",NA,"5f777dca307b0c2ccb5c1e44","computer","Desktop or Laptop","Windows 10","Edge 85.0.564.63","1536x864","1536x754","FeedbackOnly","FeedbackOnly","FeedbackOnly",1,"1",6,"Test","buttonA","response_text_area",48416.2531382934,NA,NA,"nfxXGi0",NA,"MetroFeedbackOnly",NA
"8",1601667161811,2,"02/10/2020 21:32:41","BLIND",2134522,NA,"complete",NA,"5f777dca307b0c2ccb5c1e44","computer","Desktop or Laptop","Windows 10","Edge 85.0.564.63","1536x864","1536x754","FeedbackOnly","FeedbackOnly","FeedbackOnly",1,"1",6,"Test","buttonB","continue_button",48416.2531382934,NA,NA,"",NA,"MetroFeedbackOnly",NA
"9",1601667165080,2,"02/10/2020 21:32:45","BLIND",2134522,NA,"complete",NA,"5f777dca307b0c2ccb5c1e44","computer","Desktop or Laptop","Windows 10","Edge 85.0.564.63","1536x864","1536x754","FeedbackOnly","FeedbackOnly","FeedbackOnly",2,"1",1,"Screen 1","advancementZone","continue_button",48416.2531382934,NA,NA,"",NA,"ReadyForNextTextScreen",NA
"1",1601725611687,2,"03/10/2020 13:46:51","BLIND",3015148,NA,"complete",NA,"5f78630e118ba43db03a8245","computer","Desktop or Laptop","Windows 10","Chrome 85.0.4183.121","1280x720","1280x610","FeedbackOnly","FeedbackOnly","",NA,"BEGIN TASK",NA,"","","",NA,NA,NA,"",NA,"",NA
"10",1601725941714,2,"03/10/2020 13:52:21","BLIND",3015148,NA,"complete",NA,"5f78630e118ba43db03a8245","computer","Desktop or Laptop","Windows 10","Chrome 85.0.4183.121","1280x720","1280x610","FeedbackOnly","FeedbackOnly","FeedbackOnly",7,"1",1,"Text","advancementZone","continue_button",48416.2531382934,NA,NA,"",NA,"MuziekFeedbackOnly",NA
"11",1601725943602,2,"03/10/2020 13:52:23","BLIND",3015148,NA,"complete",NA,"5f78630e118ba43db03a8245","computer","Desktop or Laptop","Windows 10","Chrome 85.0.4183.121","1280x720","1280x610","FeedbackOnly","FeedbackOnly","FeedbackOnly",7,"1",2,"JoL1","Three","response_button_text",48416.2531382934,NA,NA,"4",1,"MuziekFeedbackOnly",NA
"12",1601725949658,2,"03/10/2020 13:52:29","BLIND",3015148,NA,"complete",NA,"5f78630e118ba43db03a8245","computer","Desktop or Laptop","Windows 10","Chrome 85.0.4183.121","1280x720","1280x610","FeedbackOnly","FeedbackOnly","FeedbackOnly",7,"1",3,"Feedback","Zone1","continue_button",48416.2531382934,NA,NA,"",NA,"MuziekFeedbackOnly",NA
"13",1601725950841,2,"03/10/2020 13:52:30","BLIND",3015148,NA,"complete",NA,"5f78630e118ba43db03a8245","computer","Desktop or Laptop","Windows 10","Chrome 85.0.4183.121","1280x720","1280x610","FeedbackOnly","FeedbackOnly","FeedbackOnly",7,"1",4,"JoL2","Three","response_button_text",48416.2531382934,NA,NA,"4",1,"MuziekFeedbackOnly",NA
"14",1601725952209,2,"03/10/2020 13:52:32","BLIND",3015148,NA,"complete",NA,"5f78630e118ba43db03a8245","computer","Desktop or Laptop","Windows 10","Chrome 85.0.4183.121","1280x720","1280x610","FeedbackOnly","FeedbackOnly","FeedbackOnly",7,"1",5,"InstructieToets","advancementZone","continue_button",48416.2531382934,NA,NA,"",NA,"MuziekFeedbackOnly",NA
"15",1601726027106,2,"03/10/2020 13:53:47","BLIND",3015148,NA,"complete",NA,"5f78630e118ba43db03a8245","computer","Desktop or Laptop","Windows 10","Chrome 85.0.4183.121","1280x720","1280x610","FeedbackOnly","FeedbackOnly","FeedbackOnly",7,"1",6,"Test","buttonA","response_text_area",48416.2531382934,NA,NA,"XL",NA,"MuziekFeedbackOnly",NA
"16",1601726027108,2,"03/10/2020 13:53:47","BLIND",3015148,NA,"complete",NA,"5f78630e118ba43db03a8245","computer","Desktop or Laptop","Windows 10","Chrome 85.0.4183.121","1280x720","1280x610","FeedbackOnly","FeedbackOnly","FeedbackOnly",7,"1",6,"Test","buttonB","continue_button",48416.2531382934,NA,NA,"",NA,"MuziekFeedbackOnly",NA
"17",1601726028009,2,"03/10/2020 13:53:48","BLIND",3015148,NA,"complete",NA,"5f78630e118ba43db03a8245","computer","Desktop or Laptop","Windows 10","Chrome 85.0.4183.121","1280x720","1280x610","FeedbackOnly","FeedbackOnly","FeedbackOnly",4,"2",1,"Screen 1","advancementZone","continue_button",48416.2531382934,NA,NA,"",NA,"ReadyForNextTextScreen",NA
"18",1601726077986,2,"03/10/2020 13:54:37","BLIND",3015148,NA,"complete",NA,"5f78630e118ba43db03a8245","computer","Desktop or Laptop","Windows 10","Chrome 85.0.4183.121","1280x720","1280x610","FeedbackOnly","FeedbackOnly","FeedbackOnly",1,"1",1,"Text","advancementZone","continue_button",48416.2531382934,NA,NA,"",NA,"MetroFeedbackOnly",NA
"19",1601726079555,2,"03/10/2020 13:54:39","BLIND",3015148,NA,"complete",NA,"5f78630e118ba43db03a8245","computer","Desktop or Laptop","Windows 10","Chrome 85.0.4183.121","1280x720","1280x610","FeedbackOnly","FeedbackOnly","FeedbackOnly",1,"1",2,"JoL1","Three","response_button_text",48416.2531382934,NA,NA,"4",1,"MetroFeedbackOnly",NA
"2",1601725687346,2,"03/10/2020 13:48:07","BLIND",3015148,NA,"complete",NA,"5f78630e118ba43db03a8245","computer","Desktop or Laptop","Windows 10","Chrome 85.0.4183.121","1280x720","1280x610","FeedbackOnly","FeedbackOnly","FeedbackOnly",11,"1",1,"Text","advancementZone","continue_button",48416.2531382934,NA,NA,"",NA,"SuezFeedbackOnly",NA
"20",1601726085459,2,"03/10/2020 13:54:45","BLIND",3015148,NA,"complete",NA,"5f78630e118ba43db03a8245","computer","Desktop or Laptop","Windows 10","Chrome 85.0.4183.121","1280x720","1280x610","FeedbackOnly","FeedbackOnly","FeedbackOnly",1,"1",3,"Feedback","Zone3","continue_button",48416.2531382934,NA,NA,"",NA,"MetroFeedbackOnly",NA
"21",1601726086810,2,"03/10/2020 13:54:46","BLIND",3015148,NA,"complete",NA,"5f78630e118ba43db03a8245","computer","Desktop or Laptop","Windows 10","Chrome 85.0.4183.121","1280x720","1280x610","FeedbackOnly","FeedbackOnly","FeedbackOnly",1,"1",4,"JoL2","Four","response_button_text",48416.2531382934,NA,NA,"4",1,"MetroFeedbackOnly",NA
"22",1601726088834,2,"03/10/2020 13:54:48","BLIND",3015148,NA,"complete",NA,"5f78630e118ba43db03a8245","computer","Desktop or Laptop","Windows 10","Chrome 85.0.4183.121","1280x720","1280x610","FeedbackOnly","FeedbackOnly","FeedbackOnly",1,"1",5,"InstructieToets","advancementZone","continue_button",48416.2531382934,NA,NA,"",NA,"MetroFeedbackOnly",NA
"23",1601726169218,2,"03/10/2020 13:56:09","BLIND",3015148,NA,"complete",NA,"5f78630e118ba43db03a8245","computer","Desktop or Laptop","Windows 10","Chrome 85.0.4183.121","1280x720","1280x610","FeedbackOnly","FeedbackOnly","FeedbackOnly",1,"1",6,"Test","buttonA","response_text_area",48416.2531382934,NA,NA,"nS",NA,"MetroFeedbackOnly",NA
"24",1601726169221,2,"03/10/2020 13:56:09","BLIND",3015148,NA,"complete",NA,"5f78630e118ba43db03a8245","computer","Desktop or Laptop","Windows 10","Chrome 85.0.4183.121","1280x720","1280x610","FeedbackOnly","FeedbackOnly","FeedbackOnly",1,"1",6,"Test","buttonB","continue_button",48416.2531382934,NA,NA,"",NA,"MetroFeedbackOnly",NA
"25",1601726170305,2,"03/10/2020 13:56:10","BLIND",3015148,NA,"complete",NA,"5f78630e118ba43db03a8245","computer","Desktop or Laptop","Windows 10","Chrome 85.0.4183.121","1280x720","1280x610","FeedbackOnly","FeedbackOnly","FeedbackOnly",6,"3",1,"Screen 1","advancementZone","continue_button",48416.2531382934,NA,NA,"",NA,"ReadyForNextTextScreen",NA
"26",1601726209977,2,"03/10/2020 13:56:49","BLIND",3015148,NA,"complete",NA,"5f78630e118ba43db03a8245","computer","Desktop or Laptop","Windows 10","Chrome 85.0.4183.121","1280x720","1280x610","FeedbackOnly","FeedbackOnly","FeedbackOnly",3,"1",1,"Text","advancementZone","continue_button",48416.2531382934,NA,NA,"",NA,"BetonFeedbackOnly",NA
"27",1601726210714,2,"03/10/2020 13:56:50","BLIND",3015148,NA,"complete",NA,"5f78630e118ba43db03a8245","computer","Desktop or Laptop","Windows 10","Chrome 85.0.4183.121","1280x720","1280x610","FeedbackOnly","FeedbackOnly","FeedbackOnly",3,"1",2,"JoL1","Three","response_button_text",48416.2531382934,NA,NA,"4",1,"BetonFeedbackOnly",NA
"28",1601726216138,2,"03/10/2020 13:56:56","BLIND",3015148,NA,"complete",NA,"5f78630e118ba43db03a8245","computer","Desktop or Laptop","Windows 10","Chrome 85.0.4183.121","1280x720","1280x610","FeedbackOnly","FeedbackOnly","FeedbackOnly",3,"1",3,"Feedback","Zone1","continue_button",48416.2531382934,NA,NA,"",NA,"BetonFeedbackOnly",NA
"29",1601726217193,2,"03/10/2020 13:56:57","BLIND",3015148,NA,"complete",NA,"5f78630e118ba43db03a8245","computer","Desktop or Laptop","Windows 10","Chrome 85.0.4183.121","1280x720","1280x610","FeedbackOnly","FeedbackOnly","FeedbackOnly",3,"1",4,"JoL2","Four","response_button_text",48416.2531382934,NA,NA,"4",1,"BetonFeedbackOnly",NA
"3",1601725688739,2,"03/10/2020 13:48:08","BLIND",3015148,NA,"complete",NA,"5f78630e118ba43db03a8245","computer","Desktop or Laptop","Windows 10","Chrome 85.0.4183.121","1280x720","1280x610","FeedbackOnly","FeedbackOnly","FeedbackOnly",11,"1",2,"JoL1","Three","response_button_text",48416.2531382934,NA,NA,"4",1,"SuezFeedbackOnly",NA
"30",1601726218193,2,"03/10/2020 13:56:58","BLIND",3015148,NA,"complete",NA,"5f78630e118ba43db03a8245","computer","Desktop or Laptop","Windows 10","Chrome 85.0.4183.121","1280x720","1280x610","FeedbackOnly","FeedbackOnly","FeedbackOnly",3,"1",5,"InstructieToets","advancementZone","continue_button",48416.2531382934,NA,NA,"",NA,"BetonFeedbackOnly",NA
"31",1601726285562,2,"03/10/2020 13:58:05","BLIND",3015148,NA,"complete",NA,"5f78630e118ba43db03a8245","computer","Desktop or Laptop","Windows 10","Chrome 85.0.4183.121","1280x720","1280x610","FeedbackOnly","FeedbackOnly","FeedbackOnly",3,"1",6,"Test","buttonA","response_text_area",48416.2531382934,NA,NA,"VZ",NA,"BetonFeedbackOnly",NA
"32",1601726285564,2,"03/10/2020 13:58:05","BLIND",3015148,NA,"complete",NA,"5f78630e118ba43db03a8245","computer","Desktop or Laptop","Windows 10","Chrome 85.0.4183.121","1280x720","1280x610","FeedbackOnly","FeedbackOnly","FeedbackOnly",3,"1",6,"Test","buttonB","continue_button",48416.2531382934,NA,NA,"",NA,"BetonFeedbackOnly",NA
"33",1601726286681,2,"03/10/2020 13:58:06","BLIND",3015148,NA,"complete",NA,"5f78630e118ba43db03a8245","computer","Desktop or Laptop","Windows 10","Chrome 85.0.4183.121","1280x720","1280x610","FeedbackOnly","FeedbackOnly","FeedbackOnly",8,"4",1,"Screen 1","advancementZone","continue_button",48416.2531382934,NA,NA,"",NA,"ReadyForNextTextScreen",NA
"34",1601726359874,2,"03/10/2020 13:59:19","BLIND",3015148,NA,"complete",NA,"5f78630e118ba43db03a8245","computer","Desktop or Laptop","Windows 10","Chrome 85.0.4183.121","1280x720","1280x610","FeedbackOnly","FeedbackOnly","FeedbackOnly",5,"1",1,"Text","advancementZone","continue_button",48416.2531382934,NA,NA,"",NA,"BotoxFeedbackOnly",NA
"35",1601726362098,2,"03/10/2020 13:59:22","BLIND",3015148,NA,"complete",NA,"5f78630e118ba43db03a8245","computer","Desktop or Laptop","Windows 10","Chrome 85.0.4183.121","1280x720","1280x610","FeedbackOnly","FeedbackOnly","FeedbackOnly",5,"1",2,"JoL1","Three","response_button_text",48416.2531382934,NA,NA,"4",1,"BotoxFeedbackOnly",NA
"36",1601726376186,2,"03/10/2020 13:59:36","BLIND",3015148,NA,"complete",NA,"5f78630e118ba43db03a8245","computer","Desktop or Laptop","Windows 10","Chrome 85.0.4183.121","1280x720","1280x610","FeedbackOnly","FeedbackOnly","FeedbackOnly",5,"1",3,"Feedback","Zone1","continue_button",48416.2531382934,NA,NA,"",NA,"BotoxFeedbackOnly",NA
"37",1601726377377,2,"03/10/2020 13:59:37","BLIND",3015148,NA,"complete",NA,"5f78630e118ba43db03a8245","computer","Desktop or Laptop","Windows 10","Chrome 85.0.4183.121","1280x720","1280x610","FeedbackOnly","FeedbackOnly","FeedbackOnly",5,"1",4,"JoL2","Four","response_button_text",48416.2531382934,NA,NA,"4",1,"BotoxFeedbackOnly",NA
"38",1601726379081,2,"03/10/2020 13:59:39","BLIND",3015148,NA,"complete",NA,"5f78630e118ba43db03a8245","computer","Desktop or Laptop","Windows 10","Chrome 85.0.4183.121","1280x720","1280x610","FeedbackOnly","FeedbackOnly","FeedbackOnly",5,"1",5,"InstructieToets","advancementZone","continue_button",48416.2531382934,NA,NA,"",NA,"BotoxFeedbackOnly",NA
"39",1601726476178,2,"03/10/2020 14:01:16","BLIND",3015148,NA,"complete",NA,"5f78630e118ba43db03a8245","computer","Desktop or Laptop","Windows 10","Chrome 85.0.4183.121","1280x720","1280x610","FeedbackOnly","FeedbackOnly","FeedbackOnly",5,"1",6,"Test","buttonA","response_text_area",48416.2531382934,NA,NA,"NftguzG",NA,"BotoxFeedbackOnly",NA
"4",1601725699379,2,"03/10/2020 13:48:19","BLIND",3015148,NA,"complete",NA,"5f78630e118ba43db03a8245","computer","Desktop or Laptop","Windows 10","Chrome 85.0.4183.121","1280x720","1280x610","FeedbackOnly","FeedbackOnly","FeedbackOnly",11,"1",3,"Feedback","Zone1","continue_button",48416.2531382934,NA,NA,"",NA,"SuezFeedbackOnly",NA
"40",1601726476180,2,"03/10/2020 14:01:16","BLIND",3015148,NA,"complete",NA,"5f78630e118ba43db03a8245","computer","Desktop or Laptop","Windows 10","Chrome 85.0.4183.121","1280x720","1280x610","FeedbackOnly","FeedbackOnly","FeedbackOnly",5,"1",6,"Test","buttonB","continue_button",48416.2531382934,NA,NA,"",NA,"BotoxFeedbackOnly",NA
"41",1601726477361,2,"03/10/2020 14:01:17","BLIND",3015148,NA,"complete",NA,"5f78630e118ba43db03a8245","computer","Desktop or Laptop","Windows 10","Chrome 85.0.4183.121","1280x720","1280x610","FeedbackOnly","FeedbackOnly","FeedbackOnly",10,"5",1,"Screen 1","advancementZone","continue_button",48416.2531382934,NA,NA,"",NA,"ReadyForNextTextScreen",NA
"42",1601726566921,2,"03/10/2020 14:02:46","BLIND",3015148,NA,"complete",NA,"5f78630e118ba43db03a8245","computer","Desktop or Laptop","Windows 10","Chrome 85.0.4183.121","1280x720","1280x610","FeedbackOnly","FeedbackOnly","FeedbackOnly",9,"1",1,"Text","advancementZone","continue_button",48416.2531382934,NA,NA,"",NA,"GeldFeedbackOnly",NA
"43",1601726569554,2,"03/10/2020 14:02:49","BLIND",3015148,NA,"complete",NA,"5f78630e118ba43db03a8245","computer","Desktop or Laptop","Windows 10","Chrome 85.0.4183.121","1280x720","1280x610","FeedbackOnly","FeedbackOnly","FeedbackOnly",9,"1",2,"JoL1","Four","response_button_text",48416.2531382934,NA,NA,"4",1,"GeldFeedbackOnly",NA
"44",1601726585699,2,"03/10/2020 14:03:05","BLIND",3015148,NA,"complete",NA,"5f78630e118ba43db03a8245","computer","Desktop or Laptop","Windows 10","Chrome 85.0.4183.121","1280x720","1280x610","FeedbackOnly","FeedbackOnly","FeedbackOnly",9,"1",3,"Feedback","Zone1","continue_button",48416.2531382934,NA,NA,"",NA,"GeldFeedbackOnly",NA
"45",1601726587761,2,"03/10/2020 14:03:07","BLIND",3015148,NA,"complete",NA,"5f78630e118ba43db03a8245","computer","Desktop or Laptop","Windows 10","Chrome 85.0.4183.121","1280x720","1280x610","FeedbackOnly","FeedbackOnly","FeedbackOnly",9,"1",4,"JoL2","Four","response_button_text",48416.2531382934,NA,NA,"4",1,"GeldFeedbackOnly",NA
"46",1601726588849,2,"03/10/2020 14:03:08","BLIND",3015148,NA,"complete",NA,"5f78630e118ba43db03a8245","computer","Desktop or Laptop","Windows 10","Chrome 85.0.4183.121","1280x720","1280x610","FeedbackOnly","FeedbackOnly","FeedbackOnly",9,"1",5,"ToetsInstructies","advancementZone","continue_button",48416.2531382934,NA,NA,"",NA,"GeldFeedbackOnly",NA
"47",1601726680538,2,"03/10/2020 14:04:40","BLIND",3015148,NA,"complete",NA,"5f78630e118ba43db03a8245","computer","Desktop or Laptop","Windows 10","Chrome 85.0.4183.121","1280x720","1280x610","FeedbackOnly","FeedbackOnly","FeedbackOnly",9,"1",6,"Test","buttonA","response_text_area",48416.2531382934,NA,NA,"Nbiz",NA,"GeldFeedbackOnly",NA
"48",1601726680541,2,"03/10/2020 14:04:40","BLIND",3015148,NA,"complete",NA,"5f78630e118ba43db03a8245","computer","Desktop or Laptop","Windows 10","Chrome 85.0.4183.121","1280x720","1280x610","FeedbackOnly","FeedbackOnly","FeedbackOnly",9,"1",6,"Test","buttonB","continue_button",48416.2531382934,NA,NA,"",NA,"GeldFeedbackOnly",NA
"49",1601726680543,2,"03/10/2020 14:04:40","BLIND",3015148,NA,"complete",NA,"5f78630e118ba43db03a8245","computer","Desktop or Laptop","Windows 10","Chrome 85.0.4183.121","1280x720","1280x610","FeedbackOnly","FeedbackOnly","",NA,"END TASK",NA,"","","",1068857,NA,NA,"",NA,"",NA
"5",1601725701450,2,"03/10/2020 13:48:21","BLIND",3015148,NA,"complete",NA,"5f78630e118ba43db03a8245","computer","Desktop or Laptop","Windows 10","Chrome 85.0.4183.121","1280x720","1280x610","FeedbackOnly","FeedbackOnly","FeedbackOnly",11,"1",4,"JoL2","Four","response_button_text",48416.2531382934,NA,NA,"4",1,"SuezFeedbackOnly",NA
"6",1601725705730,2,"03/10/2020 13:48:25","BLIND",3015148,NA,"complete",NA,"5f78630e118ba43db03a8245","computer","Desktop or Laptop","Windows 10","Chrome 85.0.4183.121","1280x720","1280x610","FeedbackOnly","FeedbackOnly","FeedbackOnly",11,"1",5,"InstructieToets","advancementZone","continue_button",48416.2531382934,NA,NA,"",NA,"SuezFeedbackOnly",NA
"7",1601725897037,2,"03/10/2020 13:51:37","BLIND",3015148,NA,"complete",NA,"5f78630e118ba43db03a8245","computer","Desktop or Laptop","Windows 10","Chrome 85.0.4183.121","1280x720","1280x610","FeedbackOnly","FeedbackOnly","FeedbackOnly",11,"1",6,"Test","buttonA","response_text_area",48416.2531382934,NA,NA,"Jfoso8I9o",NA,"SuezFeedbackOnly",NA
"8",1601725897046,2,"03/10/2020 13:51:37","BLIND",3015148,NA,"complete",NA,"5f78630e118ba43db03a8245","computer","Desktop or Laptop","Windows 10","Chrome 85.0.4183.121","1280x720","1280x610","FeedbackOnly","FeedbackOnly","FeedbackOnly",11,"1",6,"Test","buttonB","continue_button",48416.2531382934,NA,NA,"",NA,"SuezFeedbackOnly",NA
"9",1601725898730,2,"03/10/2020 13:51:38","BLIND",3015148,NA,"complete",NA,"5f78630e118ba43db03a8245","computer","Desktop or Laptop","Windows 10","Chrome 85.0.4183.121","1280x720","1280x610","FeedbackOnly","FeedbackOnly","FeedbackOnly",2,"1",1,"Screen 1","advancementZone","continue_button",48416.2531382934,NA,NA,"",NA,"ReadyForNextTextScreen",NA
"1",1601661468642,2,"02/10/2020 19:57:48","BLIND",5844750,NA,"complete",NA,"5f7768e427fef22a2f66b9e3","computer","Desktop or Laptop","Windows 10","Firefox 81.0","1920x1080","1920x966","FeedbackOnly","FeedbackOnly","",NA,"BEGIN TASK",NA,"","","",NA,NA,NA,"",NA,"",NA
"10",1601661714051,2,"02/10/2020 20:01:54","BLIND",5844750,NA,"complete",NA,"5f7768e427fef22a2f66b9e3","computer","Desktop or Laptop","Windows 10","Firefox 81.0","1920x1080","1920x966","FeedbackOnly","FeedbackOnly","FeedbackOnly",5,"1",1,"Text","advancementZone","continue_button",48416.2531382934,NA,NA,"",NA,"BotoxFeedbackOnly",NA
"11",1601661716682,2,"02/10/2020 20:01:56","BLIND",5844750,NA,"complete",NA,"5f7768e427fef22a2f66b9e3","computer","Desktop or Laptop","Windows 10","Firefox 81.0","1920x1080","1920x966","FeedbackOnly","FeedbackOnly","FeedbackOnly",5,"1",2,"JoL1","Three","response_button_text",48416.2531382934,NA,NA,"4",1,"BotoxFeedbackOnly",NA
"12",1601661726910,2,"02/10/2020 20:02:06","BLIND",5844750,NA,"complete",NA,"5f7768e427fef22a2f66b9e3","computer","Desktop or Laptop","Windows 10","Firefox 81.0","1920x1080","1920x966","FeedbackOnly","FeedbackOnly","FeedbackOnly",5,"1",3,"Feedback","Zone1","continue_button",48416.2531382934,NA,NA,"",NA,"BotoxFeedbackOnly",NA
"13",1601661728843,2,"02/10/2020 20:02:08","BLIND",5844750,NA,"complete",NA,"5f7768e427fef22a2f66b9e3","computer","Desktop or Laptop","Windows 10","Firefox 81.0","1920x1080","1920x966","FeedbackOnly","FeedbackOnly","FeedbackOnly",5,"1",4,"JoL2","Two","response_button_text",48416.2531382934,NA,NA,"4",1,"BotoxFeedbackOnly",NA
"14",1601661731189,2,"02/10/2020 20:02:11","BLIND",5844750,NA,"complete",NA,"5f7768e427fef22a2f66b9e3","computer","Desktop or Laptop","Windows 10","Firefox 81.0","1920x1080","1920x966","FeedbackOnly","FeedbackOnly","FeedbackOnly",5,"1",5,"InstructieToets","advancementZone","continue_button",48416.2531382934,NA,NA,"",NA,"BotoxFeedbackOnly",NA
"15",1601661813407,2,"02/10/2020 20:03:33","BLIND",5844750,NA,"complete",NA,"5f7768e427fef22a2f66b9e3","computer","Desktop or Laptop","Windows 10","Firefox 81.0","1920x1080","1920x966","FeedbackOnly","FeedbackOnly","FeedbackOnly",5,"1",6,"Test","buttonA","response_text_area",48416.2531382934,NA,NA,"3G3lp",NA,"BotoxFeedbackOnly",NA
"16",1601661813409,2,"02/10/2020 20:03:33","BLIND",5844750,NA,"complete",NA,"5f7768e427fef22a2f66b9e3","computer","Desktop or Laptop","Windows 10","Firefox 81.0","1920x1080","1920x966","FeedbackOnly","FeedbackOnly","FeedbackOnly",5,"1",6,"Test","buttonB","continue_button",48416.2531382934,NA,NA,"",NA,"BotoxFeedbackOnly",NA
"17",1601661815437,2,"02/10/2020 20:03:35","BLIND",5844750,NA,"complete",NA,"5f7768e427fef22a2f66b9e3","computer","Desktop or Laptop","Windows 10","Firefox 81.0","1920x1080","1920x966","FeedbackOnly","FeedbackOnly","FeedbackOnly",4,"2",1,"Screen 1","advancementZone","continue_button",48416.2531382934,NA,NA,"",NA,"ReadyForNextTextScreen",NA
"18",1601661845441,2,"02/10/2020 20:04:05","BLIND",5844750,NA,"complete",NA,"5f7768e427fef22a2f66b9e3","computer","Desktop or Laptop","Windows 10","Firefox 81.0","1920x1080","1920x966","FeedbackOnly","FeedbackOnly","FeedbackOnly",1,"1",1,"Text","advancementZone","continue_button",48416.2531382934,NA,NA,"",NA,"MetroFeedbackOnly",NA
"19",1601661847705,2,"02/10/2020 20:04:07","BLIND",5844750,NA,"complete",NA,"5f7768e427fef22a2f66b9e3","computer","Desktop or Laptop","Windows 10","Firefox 81.0","1920x1080","1920x966","FeedbackOnly","FeedbackOnly","FeedbackOnly",1,"1",2,"JoL1","Three","response_button_text",48416.2531382934,NA,NA,"4",1,"MetroFeedbackOnly",NA
"2",1601661528476,2,"02/10/2020 19:58:48","BLIND",5844750,NA,"complete",NA,"5f7768e427fef22a2f66b9e3","computer","Desktop or Laptop","Windows 10","Firefox 81.0","1920x1080","1920x966","FeedbackOnly","FeedbackOnly","FeedbackOnly",7,"1",1,"Text","advancementZone","continue_button",48416.2531382934,NA,NA,"",NA,"MuziekFeedbackOnly",NA
"20",1601661855721,2,"02/10/2020 20:04:15","BLIND",5844750,NA,"complete",NA,"5f7768e427fef22a2f66b9e3","computer","Desktop or Laptop","Windows 10","Firefox 81.0","1920x1080","1920x966","FeedbackOnly","FeedbackOnly","FeedbackOnly",1,"1",3,"Feedback","Zone3","continue_button",48416.2531382934,NA,NA,"",NA,"MetroFeedbackOnly",NA
"21",1601661857373,2,"02/10/2020 20:04:17","BLIND",5844750,NA,"complete",NA,"5f7768e427fef22a2f66b9e3","computer","Desktop or Laptop","Windows 10","Firefox 81.0","1920x1080","1920x966","FeedbackOnly","FeedbackOnly","FeedbackOnly",1,"1",4,"JoL2","Two","response_button_text",48416.2531382934,NA,NA,"4",1,"MetroFeedbackOnly",NA
"22",1601661861159,2,"02/10/2020 20:04:21","BLIND",5844750,NA,"complete",NA,"5f7768e427fef22a2f66b9e3","computer","Desktop or Laptop","Windows 10","Firefox 81.0","1920x1080","1920x966","FeedbackOnly","FeedbackOnly","FeedbackOnly",1,"1",5,"InstructieToets","advancementZone","continue_button",48416.2531382934,NA,NA,"",NA,"MetroFeedbackOnly",NA
"23",1601661913973,2,"02/10/2020 20:05:13","BLIND",5844750,NA,"complete",NA,"5f7768e427fef22a2f66b9e3","computer","Desktop or Laptop","Windows 10","Firefox 81.0","1920x1080","1920x966","FeedbackOnly","FeedbackOnly","FeedbackOnly",1,"1",6,"Test","buttonA","response_text_area",48416.2531382934,NA,NA,"khpGgC23D5",NA,"MetroFeedbackOnly",NA
"24",1601661913975,2,"02/10/2020 20:05:13","BLIND",5844750,NA,"complete",NA,"5f7768e427fef22a2f66b9e3","computer","Desktop or Laptop","Windows 10","Firefox 81.0","1920x1080","1920x966","FeedbackOnly","FeedbackOnly","FeedbackOnly",1,"1",6,"Test","buttonB","continue_button",48416.2531382934,NA,NA,"",NA,"MetroFeedbackOnly",NA
"25",1601661915805,2,"02/10/2020 20:05:15","BLIND",5844750,NA,"complete",NA,"5f7768e427fef22a2f66b9e3","computer","Desktop or Laptop","Windows 10","Firefox 81.0","1920x1080","1920x966","FeedbackOnly","FeedbackOnly","FeedbackOnly",6,"3",1,"Screen 1","advancementZone","continue_button",48416.2531382934,NA,NA,"",NA,"ReadyForNextTextScreen",NA
"26",1601661960595,2,"02/10/2020 20:06:00","BLIND",5844750,NA,"complete",NA,"5f7768e427fef22a2f66b9e3","computer","Desktop or Laptop","Windows 10","Firefox 81.0","1920x1080","1920x966","FeedbackOnly","FeedbackOnly","FeedbackOnly",11,"1",1,"Text","advancementZone","continue_button",48416.2531382934,NA,NA,"",NA,"SuezFeedbackOnly",NA
"27",1601661962647,2,"02/10/2020 20:06:02","BLIND",5844750,NA,"complete",NA,"5f7768e427fef22a2f66b9e3","computer","Desktop or Laptop","Windows 10","Firefox 81.0","1920x1080","1920x966","FeedbackOnly","FeedbackOnly","FeedbackOnly",11,"1",2,"JoL1","Two","response_button_text",48416.2531382934,NA,NA,"4",1,"SuezFeedbackOnly",NA
"28",1601661971671,2,"02/10/2020 20:06:11","BLIND",5844750,NA,"complete",NA,"5f7768e427fef22a2f66b9e3","computer","Desktop or Laptop","Windows 10","Firefox 81.0","1920x1080","1920x966","FeedbackOnly","FeedbackOnly","FeedbackOnly",11,"1",3,"Feedback","Zone1","continue_button",48416.2531382934,NA,NA,"",NA,"SuezFeedbackOnly",NA
"29",1601661973723,2,"02/10/2020 20:06:13","BLIND",5844750,NA,"complete",NA,"5f7768e427fef22a2f66b9e3","computer","Desktop or Laptop","Windows 10","Firefox 81.0","1920x1080","1920x966","FeedbackOnly","FeedbackOnly","FeedbackOnly",11,"1",4,"JoL2","Two","response_button_text",48416.2531382934,NA,NA,"4",1,"SuezFeedbackOnly",NA
"3",1601661531010,2,"02/10/2020 19:58:51","BLIND",5844750,NA,"complete",NA,"5f7768e427fef22a2f66b9e3","computer","Desktop or Laptop","Windows 10","Firefox 81.0","1920x1080","1920x966","FeedbackOnly","FeedbackOnly","FeedbackOnly",7,"1",2,"JoL1","One","response_button_text",48416.2531382934,NA,NA,"4",1,"MuziekFeedbackOnly",NA
"30",1601661975873,2,"02/10/2020 20:06:15","BLIND",5844750,NA,"complete",NA,"5f7768e427fef22a2f66b9e3","computer","Desktop or Laptop","Windows 10","Firefox 81.0","1920x1080","1920x966","FeedbackOnly","FeedbackOnly","FeedbackOnly",11,"1",5,"InstructieToets","advancementZone","continue_button",48416.2531382934,NA,NA,"",NA,"SuezFeedbackOnly",NA
"31",1601662059215,2,"02/10/2020 20:07:39","BLIND",5844750,NA,"complete",NA,"5f7768e427fef22a2f66b9e3","computer","Desktop or Laptop","Windows 10","Firefox 81.0","1920x1080","1920x966","FeedbackOnly","FeedbackOnly","FeedbackOnly",11,"1",6,"Test","buttonA","response_text_area",48416.2531382934,NA,NA,"zQof",NA,"SuezFeedbackOnly",NA
"32",1601662059216,2,"02/10/2020 20:07:39","BLIND",5844750,NA,"complete",NA,"5f7768e427fef22a2f66b9e3","computer","Desktop or Laptop","Windows 10","Firefox 81.0","1920x1080","1920x966","FeedbackOnly","FeedbackOnly","FeedbackOnly",11,"1",6,"Test","buttonB","continue_button",48416.2531382934,NA,NA,"",NA,"SuezFeedbackOnly",NA
"33",1601662060909,2,"02/10/2020 20:07:40","BLIND",5844750,NA,"complete",NA,"5f7768e427fef22a2f66b9e3","computer","Desktop or Laptop","Windows 10","Firefox 81.0","1920x1080","1920x966","FeedbackOnly","FeedbackOnly","FeedbackOnly",8,"4",1,"Screen 1","advancementZone","continue_button",48416.2531382934,NA,NA,"",NA,"ReadyForNextTextScreen",NA
"34",1601662094757,2,"02/10/2020 20:08:14","BLIND",5844750,NA,"complete",NA,"5f7768e427fef22a2f66b9e3","computer","Desktop or Laptop","Windows 10","Firefox 81.0","1920x1080","1920x966","FeedbackOnly","FeedbackOnly","FeedbackOnly",3,"1",1,"Text","advancementZone","continue_button",48416.2531382934,NA,NA,"",NA,"BetonFeedbackOnly",NA
"35",1601662096082,2,"02/10/2020 20:08:16","BLIND",5844750,NA,"complete",NA,"5f7768e427fef22a2f66b9e3","computer","Desktop or Laptop","Windows 10","Firefox 81.0","1920x1080","1920x966","FeedbackOnly","FeedbackOnly","FeedbackOnly",3,"1",2,"JoL1","One","response_button_text",48416.2531382934,NA,NA,"4",1,"BetonFeedbackOnly",NA
"36",1601662105479,2,"02/10/2020 20:08:25","BLIND",5844750,NA,"complete",NA,"5f7768e427fef22a2f66b9e3","computer","Desktop or Laptop","Windows 10","Firefox 81.0","1920x1080","1920x966","FeedbackOnly","FeedbackOnly","FeedbackOnly",3,"1",3,"Feedback","Zone1","continue_button",48416.2531382934,NA,NA,"",NA,"BetonFeedbackOnly",NA
"37",1601662107206,2,"02/10/2020 20:08:27","BLIND",5844750,NA,"complete",NA,"5f7768e427fef22a2f66b9e3","computer","Desktop or Laptop","Windows 10","Firefox 81.0","1920x1080","1920x966","FeedbackOnly","FeedbackOnly","FeedbackOnly",3,"1",4,"JoL2","Two","response_button_text",48416.2531382934,NA,NA,"4",1,"BetonFeedbackOnly",NA
"38",1601662109452,2,"02/10/2020 20:08:29","BLIND",5844750,NA,"complete",NA,"5f7768e427fef22a2f66b9e3","computer","Desktop or Laptop","Windows 10","Firefox 81.0","1920x1080","1920x966","FeedbackOnly","FeedbackOnly","FeedbackOnly",3,"1",5,"InstructieToets","advancementZone","continue_button",48416.2531382934,NA,NA,"",NA,"BetonFeedbackOnly",NA
"39",1601662176201,2,"02/10/2020 20:09:36","BLIND",5844750,NA,"complete",NA,"5f7768e427fef22a2f66b9e3","computer","Desktop or Laptop","Windows 10","Firefox 81.0","1920x1080","1920x966","FeedbackOnly","FeedbackOnly","FeedbackOnly",3,"1",6,"Test","buttonA","response_text_area",48416.2531382934,NA,NA,"PQ8BS5R",NA,"BetonFeedbackOnly",NA
"4",1601661549697,2,"02/10/2020 19:59:09","BLIND",5844750,NA,"complete",NA,"5f7768e427fef22a2f66b9e3","computer","Desktop or Laptop","Windows 10","Firefox 81.0","1920x1080","1920x966","FeedbackOnly","FeedbackOnly","FeedbackOnly",7,"1",3,"Feedback","Zone1","continue_button",48416.2531382934,NA,NA,"",NA,"MuziekFeedbackOnly",NA
"40",1601662176202,2,"02/10/2020 20:09:36","BLIND",5844750,NA,"complete",NA,"5f7768e427fef22a2f66b9e3","computer","Desktop or Laptop","Windows 10","Firefox 81.0","1920x1080","1920x966","FeedbackOnly","FeedbackOnly","FeedbackOnly",3,"1",6,"Test","buttonB","continue_button",48416.2531382934,NA,NA,"",NA,"BetonFeedbackOnly",NA
"41",1601662178180,2,"02/10/2020 20:09:38","BLIND",5844750,NA,"complete",NA,"5f7768e427fef22a2f66b9e3","computer","Desktop or Laptop","Windows 10","Firefox 81.0","1920x1080","1920x966","FeedbackOnly","FeedbackOnly","FeedbackOnly",10,"5",1,"Screen 1","advancementZone","continue_button",48416.2531382934,NA,NA,"",NA,"ReadyForNextTextScreen",NA
"42",1601662219457,2,"02/10/2020 20:10:19","BLIND",5844750,NA,"complete",NA,"5f7768e427fef22a2f66b9e3","computer","Desktop or Laptop","Windows 10","Firefox 81.0","1920x1080","1920x966","FeedbackOnly","FeedbackOnly","FeedbackOnly",9,"1",1,"Text","advancementZone","continue_button",48416.2531382934,NA,NA,"",NA,"GeldFeedbackOnly",NA
"43",1601662220872,2,"02/10/2020 20:10:20","BLIND",5844750,NA,"complete",NA,"5f7768e427fef22a2f66b9e3","computer","Desktop or Laptop","Windows 10","Firefox 81.0","1920x1080","1920x966","FeedbackOnly","FeedbackOnly","FeedbackOnly",9,"1",2,"JoL1","One","response_button_text",48416.2531382934,NA,NA,"4",1,"GeldFeedbackOnly",NA
"44",1601662236929,2,"02/10/2020 20:10:36","BLIND",5844750,NA,"complete",NA,"5f7768e427fef22a2f66b9e3","computer","Desktop or Laptop","Windows 10","Firefox 81.0","1920x1080","1920x966","FeedbackOnly","FeedbackOnly","FeedbackOnly",9,"1",3,"Feedback","Zone1","continue_button",48416.2531382934,NA,NA,"",NA,"GeldFeedbackOnly",NA
"45",1601662238534,2,"02/10/2020 20:10:38","BLIND",5844750,NA,"complete",NA,"5f7768e427fef22a2f66b9e3","computer","Desktop or Laptop","Windows 10","Firefox 81.0","1920x1080","1920x966","FeedbackOnly","FeedbackOnly","FeedbackOnly",9,"1",4,"JoL2","Two","response_button_text",48416.2531382934,NA,NA,"4",1,"GeldFeedbackOnly",NA
"46",1601662240321,2,"02/10/2020 20:10:40","BLIND",5844750,NA,"complete",NA,"5f7768e427fef22a2f66b9e3","computer","Desktop or Laptop","Windows 10","Firefox 81.0","1920x1080","1920x966","FeedbackOnly","FeedbackOnly","FeedbackOnly",9,"1",5,"ToetsInstructies","advancementZone","continue_button",48416.2531382934,NA,NA,"",NA,"GeldFeedbackOnly",NA
"47",1601662333533,2,"02/10/2020 20:12:13","BLIND",5844750,NA,"complete",NA,"5f7768e427fef22a2f66b9e3","computer","Desktop or Laptop","Windows 10","Firefox 81.0","1920x1080","1920x966","FeedbackOnly","FeedbackOnly","FeedbackOnly",9,"1",6,"Test","buttonA","response_text_area",48416.2531382934,NA,NA,"wROkWAFPHm",NA,"GeldFeedbackOnly",NA
"48",1601662333533,2,"02/10/2020 20:12:13","BLIND",5844750,NA,"complete",NA,"5f7768e427fef22a2f66b9e3","computer","Desktop or Laptop","Windows 10","Firefox 81.0","1920x1080","1920x966","FeedbackOnly","FeedbackOnly","FeedbackOnly",9,"1",6,"Test","buttonB","continue_button",48416.2531382934,NA,NA,"",NA,"GeldFeedbackOnly",NA
"49",1601662333536,2,"02/10/2020 20:12:13","BLIND",5844750,NA,"complete",NA,"5f7768e427fef22a2f66b9e3","computer","Desktop or Laptop","Windows 10","Firefox 81.0","1920x1080","1920x966","FeedbackOnly","FeedbackOnly","",NA,"END TASK",NA,"","","",864894,NA,NA,"",NA,"",NA
"5",1601661551555,2,"02/10/2020 19:59:11","BLIND",5844750,NA,"complete",NA,"5f7768e427fef22a2f66b9e3","computer","Desktop or Laptop","Windows 10","Firefox 81.0","1920x1080","1920x966","FeedbackOnly","FeedbackOnly","FeedbackOnly",7,"1",4,"JoL2","Two","response_button_text",48416.2531382934,NA,NA,"4",1,"MuziekFeedbackOnly",NA
"6",1601661555756,2,"02/10/2020 19:59:15","BLIND",5844750,NA,"complete",NA,"5f7768e427fef22a2f66b9e3","computer","Desktop or Laptop","Windows 10","Firefox 81.0","1920x1080","1920x966","FeedbackOnly","FeedbackOnly","FeedbackOnly",7,"1",5,"InstructieToets","advancementZone","continue_button",48416.2531382934,NA,NA,"",NA,"MuziekFeedbackOnly",NA
"7",1601661674303,2,"02/10/2020 20:01:14","BLIND",5844750,NA,"complete",NA,"5f7768e427fef22a2f66b9e3","computer","Desktop or Laptop","Windows 10","Firefox 81.0","1920x1080","1920x966","FeedbackOnly","FeedbackOnly","FeedbackOnly",7,"1",6,"Test","buttonA","response_text_area",48416.2531382934,NA,NA,"H9IoXVSc5K",NA,"MuziekFeedbackOnly",NA
"8",1601661674304,2,"02/10/2020 20:01:14","BLIND",5844750,NA,"complete",NA,"5f7768e427fef22a2f66b9e3","computer","Desktop or Laptop","Windows 10","Firefox 81.0","1920x1080","1920x966","FeedbackOnly","FeedbackOnly","FeedbackOnly",7,"1",6,"Test","buttonB","continue_button",48416.2531382934,NA,NA,"",NA,"MuziekFeedbackOnly",NA
"9",1601661676842,2,"02/10/2020 20:01:16","BLIND",5844750,NA,"complete",NA,"5f7768e427fef22a2f66b9e3","computer","Desktop or Laptop","Windows 10","Firefox 81.0","1920x1080","1920x966","FeedbackOnly","FeedbackOnly","FeedbackOnly",2,"1",1,"Screen 1","advancementZone","continue_button",48416.2531382934,NA,NA,"",NA,"ReadyForNextTextScreen",NA
"END OF FILE",NA,NA,"","",NA,NA,"",NA,"","","","","","","","","","",NA,"",NA,"","","",48416.2531382934,NA,NA,"",NA,"",NA
"END OF FILE",NA,NA,"","",NA,NA,"",NA,"","","","","","","","","","",NA,"",NA,"","","",NA,NA,NA,"",NA,"",NA
