"Event_Index","Local_Timestamp","Local_Timezone","Local_Date","Participant_Public_ID","Participant_Private_ID","Participant_Starting_Group","Participant_Status","Participant_Completion_Code","Participant_External_Session_ID","Participant_Device_Type","Participant_Device","Participant_OS","Participant_Browser","Participant_Monitor_Size","Participant_Viewport_Size","randomiser_81rl","Spreadsheet","Spreadsheet_Name","Spreadsheet_Row","Trial_Number","Screen_Number","Screen_Name","Zone_Name","Zone_Type","Reaction_Time","Reaction_Onset","Response_Type","Response","Attempt","display","Diagram_Box_Require_Response"
"1",1604134133064,1,"31/10/2020 09:48:53","BLIND",1677988,NA,"complete",NA,"5f9d23e0267c432304f67e18","computer","Desktop or Laptop","Windows 10","Edge 86.0.622.56","1920x1080","1920x937","DiagramNoFeedback","DiagramNoFeedback","",NA,"BEGIN TASK",NA,"","","",NA,NA,NA,"",NA,"",NA
"10",1604134261509,1,"31/10/2020 09:51:01","BLIND",1677988,NA,"complete",NA,"5f9d23e0267c432304f67e18","computer","Desktop or Laptop","Windows 10","Edge 86.0.622.56","1920x1080","1920x937","DiagramNoFeedback","DiagramNoFeedback","DiagramNoFeedback",1,"1",5,"JoL2","Three","response_button_text",65626.4964771186,NA,NA,"4",1,"SportenDiagramNoFeedback",NA
"11",1604134263835,1,"31/10/2020 09:51:03","BLIND",1677988,NA,"complete",NA,"5f9d23e0267c432304f67e18","computer","Desktop or Laptop","Windows 10","Edge 86.0.622.56","1920x1080","1920x937","DiagramNoFeedback","DiagramNoFeedback","DiagramNoFeedback",1,"1",6,"InstructieToets","advancementZone","continue_button",65626.4964771186,NA,NA,"",NA,"SportenDiagramNoFeedback",NA
"12",1604134348418,1,"31/10/2020 09:52:28","BLIND",1677988,NA,"complete",NA,"5f9d23e0267c432304f67e18","computer","Desktop or Laptop","Windows 10","Edge 86.0.622.56","1920x1080","1920x937","DiagramNoFeedback","DiagramNoFeedback","DiagramNoFeedback",1,"1",7,"Test","buttonA","response_text_area",65626.4964771186,NA,NA,"U3NBW",NA,"SportenDiagramNoFeedback",NA
"13",1604134348419,1,"31/10/2020 09:52:28","BLIND",1677988,NA,"complete",NA,"5f9d23e0267c432304f67e18","computer","Desktop or Laptop","Windows 10","Edge 86.0.622.56","1920x1080","1920x937","DiagramNoFeedback","DiagramNoFeedback","DiagramNoFeedback",1,"1",7,"Test","buttonB","continue_button",65626.4964771186,NA,NA,"",NA,"SportenDiagramNoFeedback",NA
"14",1604134349812,1,"31/10/2020 09:52:29","BLIND",1677988,NA,"complete",NA,"5f9d23e0267c432304f67e18","computer","Desktop or Laptop","Windows 10","Edge 86.0.622.56","1920x1080","1920x937","DiagramNoFeedback","DiagramNoFeedback","DiagramNoFeedback",1,"1",8,"Klaar4Experiment","advancementZone","continue_button",65626.4964771186,NA,NA,"",NA,"SportenDiagramNoFeedback",NA
"15",1604134412947,1,"31/10/2020 09:53:32","BLIND",1677988,NA,"complete",NA,"5f9d23e0267c432304f67e18","computer","Desktop or Laptop","Windows 10","Edge 86.0.622.56","1920x1080","1920x937","DiagramNoFeedback","DiagramNoFeedback","DiagramNoFeedback",8,"1",1,"Text","advancementZone","continue_button",65626.4964771186,NA,NA,"",NA,"BotoxDiagramNoFeedback",NA
"16",1604134414299,1,"31/10/2020 09:53:34","BLIND",1677988,NA,"complete",NA,"5f9d23e0267c432304f67e18","computer","Desktop or Laptop","Windows 10","Edge 86.0.622.56","1920x1080","1920x937","DiagramNoFeedback","DiagramNoFeedback","DiagramNoFeedback",8,"1",2,"JoL1","Two","response_button_text",65626.4964771186,NA,NA,"4",1,"BotoxDiagramNoFeedback",NA
"17",1604134474997,1,"31/10/2020 09:54:34","BLIND",1677988,NA,"complete",NA,"5f9d23e0267c432304f67e18","computer","Desktop or Laptop","Windows 10","Edge 86.0.622.56","1920x1080","1920x937","DiagramNoFeedback","DiagramNoFeedback","DiagramNoFeedback",8,"1",3,"Diagram","DiagBox3","response_text_area",65626.4964771186,NA,NA,"6xnoE",NA,"BotoxDiagramNoFeedback",NA
"18",1604134474998,1,"31/10/2020 09:54:34","BLIND",1677988,NA,"complete",NA,"5f9d23e0267c432304f67e18","computer","Desktop or Laptop","Windows 10","Edge 86.0.622.56","1920x1080","1920x937","DiagramNoFeedback","DiagramNoFeedback","DiagramNoFeedback",8,"1",3,"Diagram","DiagBox4","response_text_area",65626.4964771186,NA,NA,"YnL",NA,"BotoxDiagramNoFeedback",NA
"19",1604134474998,1,"31/10/2020 09:54:34","BLIND",1677988,NA,"complete",NA,"5f9d23e0267c432304f67e18","computer","Desktop or Laptop","Windows 10","Edge 86.0.622.56","1920x1080","1920x937","DiagramNoFeedback","DiagramNoFeedback","DiagramNoFeedback",8,"1",3,"Diagram","DiagBox2","response_text_area",65626.4964771186,NA,NA,"nQaXJ8LC",NA,"BotoxDiagramNoFeedback",NA
"2",1604134170541,1,"31/10/2020 09:49:30","BLIND",1677988,NA,"complete",NA,"5f9d23e0267c432304f67e18","computer","Desktop or Laptop","Windows 10","Edge 86.0.622.56","1920x1080","1920x937","DiagramNoFeedback","DiagramNoFeedback","DiagramNoFeedback",1,"1",1,"Text","advancementZone","continue_button",65626.4964771186,NA,NA,"",NA,"SportenDiagramNoFeedback",NA
"20",1604134474999,1,"31/10/2020 09:54:34","BLIND",1677988,NA,"complete",NA,"5f9d23e0267c432304f67e18","computer","Desktop or Laptop","Windows 10","Edge 86.0.622.56","1920x1080","1920x937","DiagramNoFeedback","DiagramNoFeedback","DiagramNoFeedback",8,"1",3,"Diagram","DiagBox1","response_text_area",65626.4964771186,NA,NA,"PXoT",NA,"BotoxDiagramNoFeedback",NA
"21",1604134474999,1,"31/10/2020 09:54:34","BLIND",1677988,NA,"complete",NA,"5f9d23e0267c432304f67e18","computer","Desktop or Laptop","Windows 10","Edge 86.0.622.56","1920x1080","1920x937","DiagramNoFeedback","DiagramNoFeedback","DiagramNoFeedback",8,"1",3,"Diagram","Zone1","continue_button",65626.4964771186,NA,NA,"",NA,"BotoxDiagramNoFeedback",NA
"22",1604134476357,1,"31/10/2020 09:54:36","BLIND",1677988,NA,"complete",NA,"5f9d23e0267c432304f67e18","computer","Desktop or Laptop","Windows 10","Edge 86.0.622.56","1920x1080","1920x937","DiagramNoFeedback","DiagramNoFeedback","DiagramNoFeedback",8,"1",4,"OwnDiagram","Zone1","continue_button",65626.4964771186,NA,NA,"",NA,"BotoxDiagramNoFeedback",NA
"23",1604134477316,1,"31/10/2020 09:54:37","BLIND",1677988,NA,"complete",NA,"5f9d23e0267c432304f67e18","computer","Desktop or Laptop","Windows 10","Edge 86.0.622.56","1920x1080","1920x937","DiagramNoFeedback","DiagramNoFeedback","DiagramNoFeedback",8,"1",5,"JoL2","Three","response_button_text",65626.4964771186,NA,NA,"4",1,"BotoxDiagramNoFeedback",NA
"24",1604134478905,1,"31/10/2020 09:54:38","BLIND",1677988,NA,"complete",NA,"5f9d23e0267c432304f67e18","computer","Desktop or Laptop","Windows 10","Edge 86.0.622.56","1920x1080","1920x937","DiagramNoFeedback","DiagramNoFeedback","DiagramNoFeedback",8,"1",6,"InstructieToets","advancementZone","continue_button",65626.4964771186,NA,NA,"",NA,"BotoxDiagramNoFeedback",NA
"25",1604134537181,1,"31/10/2020 09:55:37","BLIND",1677988,NA,"complete",NA,"5f9d23e0267c432304f67e18","computer","Desktop or Laptop","Windows 10","Edge 86.0.622.56","1920x1080","1920x937","DiagramNoFeedback","DiagramNoFeedback","DiagramNoFeedback",8,"1",7,"Test","buttonA","response_text_area",65626.4964771186,NA,NA,"Qin276wkq",NA,"BotoxDiagramNoFeedback",NA
"26",1604134537182,1,"31/10/2020 09:55:37","BLIND",1677988,NA,"complete",NA,"5f9d23e0267c432304f67e18","computer","Desktop or Laptop","Windows 10","Edge 86.0.622.56","1920x1080","1920x937","DiagramNoFeedback","DiagramNoFeedback","DiagramNoFeedback",8,"1",7,"Test","buttonB","continue_button",65626.4964771186,NA,NA,"",NA,"BotoxDiagramNoFeedback",NA
"27",1604134542527,1,"31/10/2020 09:55:42","BLIND",1677988,NA,"complete",NA,"5f9d23e0267c432304f67e18","computer","Desktop or Laptop","Windows 10","Edge 86.0.622.56","1920x1080","1920x937","DiagramNoFeedback","DiagramNoFeedback","DiagramNoFeedback",3,"1",1,"ReadyForNext","advancementZone","continue_button",65626.4964771186,NA,NA,"",NA,"ReadyForNextTextScreen",NA
"28",1604134573832,1,"31/10/2020 09:56:13","BLIND",1677988,NA,"complete",NA,"5f9d23e0267c432304f67e18","computer","Desktop or Laptop","Windows 10","Edge 86.0.622.56","1920x1080","1920x937","DiagramNoFeedback","DiagramNoFeedback","DiagramNoFeedback",4,"1",1,"Text","advancementZone","continue_button",65626.4964771186,NA,NA,"",NA,"BetonDiagramNoFeedback",NA
"29",1604134574969,1,"31/10/2020 09:56:14","BLIND",1677988,NA,"complete",NA,"5f9d23e0267c432304f67e18","computer","Desktop or Laptop","Windows 10","Edge 86.0.622.56","1920x1080","1920x937","DiagramNoFeedback","DiagramNoFeedback","DiagramNoFeedback",4,"1",2,"JoL1","Three","response_button_text",65626.4964771186,NA,NA,"4",1,"BetonDiagramNoFeedback",NA
"3",1604134175775,1,"31/10/2020 09:49:35","BLIND",1677988,NA,"complete",NA,"5f9d23e0267c432304f67e18","computer","Desktop or Laptop","Windows 10","Edge 86.0.622.56","1920x1080","1920x937","DiagramNoFeedback","DiagramNoFeedback","DiagramNoFeedback",1,"1",2,"JoL1","Three","response_button_text",65626.4964771186,NA,NA,"4",1,"SportenDiagramNoFeedback",NA
"30",1604134624352,1,"31/10/2020 09:57:04","BLIND",1677988,NA,"complete",NA,"5f9d23e0267c432304f67e18","computer","Desktop or Laptop","Windows 10","Edge 86.0.622.56","1920x1080","1920x937","DiagramNoFeedback","DiagramNoFeedback","DiagramNoFeedback",4,"1",3,"Diagram","DiagBox2","response_text_area",65626.4964771186,NA,NA,"TtD7w1E",NA,"BetonDiagramNoFeedback",NA
"31",1604134624353,1,"31/10/2020 09:57:04","BLIND",1677988,NA,"complete",NA,"5f9d23e0267c432304f67e18","computer","Desktop or Laptop","Windows 10","Edge 86.0.622.56","1920x1080","1920x937","DiagramNoFeedback","DiagramNoFeedback","DiagramNoFeedback",4,"1",3,"Diagram","DiagBox3","response_text_area",65626.4964771186,NA,NA,"j2LI",NA,"BetonDiagramNoFeedback",NA
"32",1604134624353,1,"31/10/2020 09:57:04","BLIND",1677988,NA,"complete",NA,"5f9d23e0267c432304f67e18","computer","Desktop or Laptop","Windows 10","Edge 86.0.622.56","1920x1080","1920x937","DiagramNoFeedback","DiagramNoFeedback","DiagramNoFeedback",4,"1",3,"Diagram","DiagBox4","response_text_area",65626.4964771186,NA,NA,"8RsYyo",NA,"BetonDiagramNoFeedback",NA
"33",1604134624353,1,"31/10/2020 09:57:04","BLIND",1677988,NA,"complete",NA,"5f9d23e0267c432304f67e18","computer","Desktop or Laptop","Windows 10","Edge 86.0.622.56","1920x1080","1920x937","DiagramNoFeedback","DiagramNoFeedback","DiagramNoFeedback",4,"1",3,"Diagram","DiagBox1","response_text_area",65626.4964771186,NA,NA,"EQthAN1CB",NA,"BetonDiagramNoFeedback",NA
"34",1604134624353,1,"31/10/2020 09:57:04","BLIND",1677988,NA,"complete",NA,"5f9d23e0267c432304f67e18","computer","Desktop or Laptop","Windows 10","Edge 86.0.622.56","1920x1080","1920x937","DiagramNoFeedback","DiagramNoFeedback","DiagramNoFeedback",4,"1",3,"Diagram","Zone1","continue_button",65626.4964771186,NA,NA,"",NA,"BetonDiagramNoFeedback",NA
"35",1604134625636,1,"31/10/2020 09:57:05","BLIND",1677988,NA,"complete",NA,"5f9d23e0267c432304f67e18","computer","Desktop or Laptop","Windows 10","Edge 86.0.622.56","1920x1080","1920x937","DiagramNoFeedback","DiagramNoFeedback","DiagramNoFeedback",4,"1",4,"OwnDiagram","Zone1","continue_button",65626.4964771186,NA,NA,"",NA,"BetonDiagramNoFeedback",NA
"36",1604134627222,1,"31/10/2020 09:57:07","BLIND",1677988,NA,"complete",NA,"5f9d23e0267c432304f67e18","computer","Desktop or Laptop","Windows 10","Edge 86.0.622.56","1920x1080","1920x937","DiagramNoFeedback","DiagramNoFeedback","DiagramNoFeedback",4,"1",5,"JoL2","Three","response_button_text",65626.4964771186,NA,NA,"4",1,"BetonDiagramNoFeedback",NA
"37",1604134628611,1,"31/10/2020 09:57:08","BLIND",1677988,NA,"complete",NA,"5f9d23e0267c432304f67e18","computer","Desktop or Laptop","Windows 10","Edge 86.0.622.56","1920x1080","1920x937","DiagramNoFeedback","DiagramNoFeedback","DiagramNoFeedback",4,"1",6,"InstructieToets","advancementZone","continue_button",65626.4964771186,NA,NA,"",NA,"BetonDiagramNoFeedback",NA
"38",1604134682225,1,"31/10/2020 09:58:02","BLIND",1677988,NA,"complete",NA,"5f9d23e0267c432304f67e18","computer","Desktop or Laptop","Windows 10","Edge 86.0.622.56","1920x1080","1920x937","DiagramNoFeedback","DiagramNoFeedback","DiagramNoFeedback",4,"1",7,"Test","buttonA","response_text_area",65626.4964771186,NA,NA,"TdRecCm",NA,"BetonDiagramNoFeedback",NA
"39",1604134682226,1,"31/10/2020 09:58:02","BLIND",1677988,NA,"complete",NA,"5f9d23e0267c432304f67e18","computer","Desktop or Laptop","Windows 10","Edge 86.0.622.56","1920x1080","1920x937","DiagramNoFeedback","DiagramNoFeedback","DiagramNoFeedback",4,"1",7,"Test","buttonB","continue_button",65626.4964771186,NA,NA,"",NA,"BetonDiagramNoFeedback",NA
"4",1604134253527,1,"31/10/2020 09:50:53","BLIND",1677988,NA,"complete",NA,"5f9d23e0267c432304f67e18","computer","Desktop or Laptop","Windows 10","Edge 86.0.622.56","1920x1080","1920x937","DiagramNoFeedback","DiagramNoFeedback","DiagramNoFeedback",1,"1",3,"Diagram","DiagBox1","response_text_area",65626.4964771186,NA,NA,"gx",NA,"SportenDiagramNoFeedback",NA
"40",1604134683612,1,"31/10/2020 09:58:03","BLIND",1677988,NA,"complete",NA,"5f9d23e0267c432304f67e18","computer","Desktop or Laptop","Windows 10","Edge 86.0.622.56","1920x1080","1920x937","DiagramNoFeedback","DiagramNoFeedback","DiagramNoFeedback",5,"2",1,"ReadyForNext","advancementZone","continue_button",65626.4964771186,NA,NA,"",NA,"ReadyForNextTextScreen",NA
"41",1604134722887,1,"31/10/2020 09:58:42","BLIND",1677988,NA,"complete",NA,"5f9d23e0267c432304f67e18","computer","Desktop or Laptop","Windows 10","Edge 86.0.622.56","1920x1080","1920x937","DiagramNoFeedback","DiagramNoFeedback","DiagramNoFeedback",6,"1",1,"Text","advancementZone","continue_button",65626.4964771186,NA,NA,"",NA,"SuezDiagramNoFeedback",NA
"42",1604134725320,1,"31/10/2020 09:58:45","BLIND",1677988,NA,"complete",NA,"5f9d23e0267c432304f67e18","computer","Desktop or Laptop","Windows 10","Edge 86.0.622.56","1920x1080","1920x937","DiagramNoFeedback","DiagramNoFeedback","DiagramNoFeedback",6,"1",2,"JoL1","Two","response_button_text",65626.4964771186,NA,NA,"4",1,"SuezDiagramNoFeedback",NA
"43",1604134797243,1,"31/10/2020 09:59:57","BLIND",1677988,NA,"complete",NA,"5f9d23e0267c432304f67e18","computer","Desktop or Laptop","Windows 10","Edge 86.0.622.56","1920x1080","1920x937","DiagramNoFeedback","DiagramNoFeedback","DiagramNoFeedback",6,"1",3,"Diagram","DiagBox2","response_text_area",65626.4964771186,NA,NA,"HemGTzRF",NA,"SuezDiagramNoFeedback",NA
"44",1604134797244,1,"31/10/2020 09:59:57","BLIND",1677988,NA,"complete",NA,"5f9d23e0267c432304f67e18","computer","Desktop or Laptop","Windows 10","Edge 86.0.622.56","1920x1080","1920x937","DiagramNoFeedback","DiagramNoFeedback","DiagramNoFeedback",6,"1",3,"Diagram","DiagBox3","response_text_area",65626.4964771186,NA,NA,"6Z19Xx",NA,"SuezDiagramNoFeedback",NA
"45",1604134797245,1,"31/10/2020 09:59:57","BLIND",1677988,NA,"complete",NA,"5f9d23e0267c432304f67e18","computer","Desktop or Laptop","Windows 10","Edge 86.0.622.56","1920x1080","1920x937","DiagramNoFeedback","DiagramNoFeedback","DiagramNoFeedback",6,"1",3,"Diagram","DiagBox4","response_text_area",65626.4964771186,NA,NA,"5JJxciymr",NA,"SuezDiagramNoFeedback",NA
"46",1604134797245,1,"31/10/2020 09:59:57","BLIND",1677988,NA,"complete",NA,"5f9d23e0267c432304f67e18","computer","Desktop or Laptop","Windows 10","Edge 86.0.622.56","1920x1080","1920x937","DiagramNoFeedback","DiagramNoFeedback","DiagramNoFeedback",6,"1",3,"Diagram","DiagBox1","response_text_area",65626.4964771186,NA,NA,"6EBXRGt",NA,"SuezDiagramNoFeedback",NA
"47",1604134797245,1,"31/10/2020 09:59:57","BLIND",1677988,NA,"complete",NA,"5f9d23e0267c432304f67e18","computer","Desktop or Laptop","Windows 10","Edge 86.0.622.56","1920x1080","1920x937","DiagramNoFeedback","DiagramNoFeedback","DiagramNoFeedback",6,"1",3,"Diagram","Zone1","continue_button",65626.4964771186,NA,NA,"",NA,"SuezDiagramNoFeedback",NA
"48",1604134799244,1,"31/10/2020 09:59:59","BLIND",1677988,NA,"complete",NA,"5f9d23e0267c432304f67e18","computer","Desktop or Laptop","Windows 10","Edge 86.0.622.56","1920x1080","1920x937","DiagramNoFeedback","DiagramNoFeedback","DiagramNoFeedback",6,"1",4,"OwnDiagram","Zone1","continue_button",65626.4964771186,NA,NA,"",NA,"SuezDiagramNoFeedback",NA
"49",1604134800549,1,"31/10/2020 10:00:00","BLIND",1677988,NA,"complete",NA,"5f9d23e0267c432304f67e18","computer","Desktop or Laptop","Windows 10","Edge 86.0.622.56","1920x1080","1920x937","DiagramNoFeedback","DiagramNoFeedback","DiagramNoFeedback",6,"1",5,"JoL2","Three","response_button_text",65626.4964771186,NA,NA,"4",1,"SuezDiagramNoFeedback",NA
"5",1604134253528,1,"31/10/2020 09:50:53","BLIND",1677988,NA,"complete",NA,"5f9d23e0267c432304f67e18","computer","Desktop or Laptop","Windows 10","Edge 86.0.622.56","1920x1080","1920x937","DiagramNoFeedback","DiagramNoFeedback","DiagramNoFeedback",1,"1",3,"Diagram","DiagBox2","response_text_area",65626.4964771186,NA,NA,"0Y4Y",NA,"SportenDiagramNoFeedback",NA
"50",1604134801622,1,"31/10/2020 10:00:01","BLIND",1677988,NA,"complete",NA,"5f9d23e0267c432304f67e18","computer","Desktop or Laptop","Windows 10","Edge 86.0.622.56","1920x1080","1920x937","DiagramNoFeedback","DiagramNoFeedback","DiagramNoFeedback",6,"1",6,"InstructieToets","advancementZone","continue_button",65626.4964771186,NA,NA,"",NA,"SuezDiagramNoFeedback",NA
"51",1604134878571,1,"31/10/2020 10:01:18","BLIND",1677988,NA,"complete",NA,"5f9d23e0267c432304f67e18","computer","Desktop or Laptop","Windows 10","Edge 86.0.622.56","1920x1080","1920x937","DiagramNoFeedback","DiagramNoFeedback","DiagramNoFeedback",6,"1",7,"Test","buttonA","response_text_area",65626.4964771186,NA,NA,"1ylgD",NA,"SuezDiagramNoFeedback",NA
"52",1604134878573,1,"31/10/2020 10:01:18","BLIND",1677988,NA,"complete",NA,"5f9d23e0267c432304f67e18","computer","Desktop or Laptop","Windows 10","Edge 86.0.622.56","1920x1080","1920x937","DiagramNoFeedback","DiagramNoFeedback","DiagramNoFeedback",6,"1",7,"Test","buttonB","continue_button",65626.4964771186,NA,NA,"",NA,"SuezDiagramNoFeedback",NA
"53",1604134880379,1,"31/10/2020 10:01:20","BLIND",1677988,NA,"complete",NA,"5f9d23e0267c432304f67e18","computer","Desktop or Laptop","Windows 10","Edge 86.0.622.56","1920x1080","1920x937","DiagramNoFeedback","DiagramNoFeedback","DiagramNoFeedback",7,"3",1,"ReadyForNext","advancementZone","continue_button",65626.4964771186,NA,NA,"",NA,"ReadyForNextTextScreen",NA
"54",1604134914470,1,"31/10/2020 10:01:54","BLIND",1677988,NA,"complete",NA,"5f9d23e0267c432304f67e18","computer","Desktop or Laptop","Windows 10","Edge 86.0.622.56","1920x1080","1920x937","DiagramNoFeedback","DiagramNoFeedback","DiagramNoFeedback",2,"1",1,"Text","advancementZone","continue_button",65626.4964771186,NA,NA,"",NA,"MetroDiagramNoFeedback",NA
"55",1604134915089,1,"31/10/2020 10:01:55","BLIND",1677988,NA,"complete",NA,"5f9d23e0267c432304f67e18","computer","Desktop or Laptop","Windows 10","Edge 86.0.622.56","1920x1080","1920x937","DiagramNoFeedback","DiagramNoFeedback","DiagramNoFeedback",2,"1",2,"JoL1","Two","response_button_text",65626.4964771186,NA,NA,"4",1,"MetroDiagramNoFeedback",NA
"56",1604134997166,1,"31/10/2020 10:03:17","BLIND",1677988,NA,"complete",NA,"5f9d23e0267c432304f67e18","computer","Desktop or Laptop","Windows 10","Edge 86.0.622.56","1920x1080","1920x937","DiagramNoFeedback","DiagramNoFeedback","DiagramNoFeedback",2,"1",3,"Diagram","DiagBox1","response_text_area",65626.4964771186,NA,NA,"XDDO1W",NA,"MetroDiagramNoFeedback",NA
"57",1604134997167,1,"31/10/2020 10:03:17","BLIND",1677988,NA,"complete",NA,"5f9d23e0267c432304f67e18","computer","Desktop or Laptop","Windows 10","Edge 86.0.622.56","1920x1080","1920x937","DiagramNoFeedback","DiagramNoFeedback","DiagramNoFeedback",2,"1",3,"Diagram","DiagBox3","response_text_area",65626.4964771186,NA,NA,"AJrOm",NA,"MetroDiagramNoFeedback",NA
"58",1604134997167,1,"31/10/2020 10:03:17","BLIND",1677988,NA,"complete",NA,"5f9d23e0267c432304f67e18","computer","Desktop or Laptop","Windows 10","Edge 86.0.622.56","1920x1080","1920x937","DiagramNoFeedback","DiagramNoFeedback","DiagramNoFeedback",2,"1",3,"Diagram","DiagBox4","response_text_area",65626.4964771186,NA,NA,"HBBQOp",NA,"MetroDiagramNoFeedback",NA
"59",1604134997167,1,"31/10/2020 10:03:17","BLIND",1677988,NA,"complete",NA,"5f9d23e0267c432304f67e18","computer","Desktop or Laptop","Windows 10","Edge 86.0.622.56","1920x1080","1920x937","DiagramNoFeedback","DiagramNoFeedback","DiagramNoFeedback",2,"1",3,"Diagram","DiagBox2","response_text_area",65626.4964771186,NA,NA,"ghyZ1ANZ3Y",NA,"MetroDiagramNoFeedback",NA
"6",1604134253528,1,"31/10/2020 09:50:53","BLIND",1677988,NA,"complete",NA,"5f9d23e0267c432304f67e18","computer","Desktop or Laptop","Windows 10","Edge 86.0.622.56","1920x1080","1920x937","DiagramNoFeedback","DiagramNoFeedback","DiagramNoFeedback",1,"1",3,"Diagram","DiagBox3","response_text_area",65626.4964771186,NA,NA,"hmph",NA,"SportenDiagramNoFeedback",NA
"60",1604134997167,1,"31/10/2020 10:03:17","BLIND",1677988,NA,"complete",NA,"5f9d23e0267c432304f67e18","computer","Desktop or Laptop","Windows 10","Edge 86.0.622.56","1920x1080","1920x937","DiagramNoFeedback","DiagramNoFeedback","DiagramNoFeedback",2,"1",3,"Diagram","Zone1","continue_button",65626.4964771186,NA,NA,"",NA,"MetroDiagramNoFeedback",NA
"61",1604135002324,1,"31/10/2020 10:03:22","BLIND",1677988,NA,"complete",NA,"5f9d23e0267c432304f67e18","computer","Desktop or Laptop","Windows 10","Edge 86.0.622.56","1920x1080","1920x937","DiagramNoFeedback","DiagramNoFeedback","DiagramNoFeedback",2,"1",4,"OwnDiagram","Zone1","continue_button",65626.4964771186,NA,NA,"",NA,"MetroDiagramNoFeedback",NA
"62",1604135003303,1,"31/10/2020 10:03:23","BLIND",1677988,NA,"complete",NA,"5f9d23e0267c432304f67e18","computer","Desktop or Laptop","Windows 10","Edge 86.0.622.56","1920x1080","1920x937","DiagramNoFeedback","DiagramNoFeedback","DiagramNoFeedback",2,"1",5,"JoL2","Three","response_button_text",65626.4964771186,NA,NA,"4",1,"MetroDiagramNoFeedback",NA
"63",1604135004663,1,"31/10/2020 10:03:24","BLIND",1677988,NA,"complete",NA,"5f9d23e0267c432304f67e18","computer","Desktop or Laptop","Windows 10","Edge 86.0.622.56","1920x1080","1920x937","DiagramNoFeedback","DiagramNoFeedback","DiagramNoFeedback",2,"1",6,"InstructieToets","advancementZone","continue_button",65626.4964771186,NA,NA,"",NA,"MetroDiagramNoFeedback",NA
"64",1604135057334,1,"31/10/2020 10:04:17","BLIND",1677988,NA,"complete",NA,"5f9d23e0267c432304f67e18","computer","Desktop or Laptop","Windows 10","Edge 86.0.622.56","1920x1080","1920x937","DiagramNoFeedback","DiagramNoFeedback","DiagramNoFeedback",2,"1",7,"Test","buttonA","response_text_area",65626.4964771186,NA,NA,"Ozz9",NA,"MetroDiagramNoFeedback",NA
"65",1604135057336,1,"31/10/2020 10:04:17","BLIND",1677988,NA,"complete",NA,"5f9d23e0267c432304f67e18","computer","Desktop or Laptop","Windows 10","Edge 86.0.622.56","1920x1080","1920x937","DiagramNoFeedback","DiagramNoFeedback","DiagramNoFeedback",2,"1",7,"Test","buttonB","continue_button",65626.4964771186,NA,NA,"",NA,"MetroDiagramNoFeedback",NA
"66",1604135058746,1,"31/10/2020 10:04:18","BLIND",1677988,NA,"complete",NA,"5f9d23e0267c432304f67e18","computer","Desktop or Laptop","Windows 10","Edge 86.0.622.56","1920x1080","1920x937","DiagramNoFeedback","DiagramNoFeedback","DiagramNoFeedback",9,"4",1,"ReadyForNext","advancementZone","continue_button",65626.4964771186,NA,NA,"",NA,"ReadyForNextTextScreen",NA
"67",1604135098016,1,"31/10/2020 10:04:58","BLIND",1677988,NA,"complete",NA,"5f9d23e0267c432304f67e18","computer","Desktop or Laptop","Windows 10","Edge 86.0.622.56","1920x1080","1920x937","DiagramNoFeedback","DiagramNoFeedback","DiagramNoFeedback",10,"1",1,"Text","advancementZone","continue_button",65626.4964771186,NA,NA,"",NA,"MuziekDiagramNoFeedback",NA
"68",1604135099191,1,"31/10/2020 10:04:59","BLIND",1677988,NA,"complete",NA,"5f9d23e0267c432304f67e18","computer","Desktop or Laptop","Windows 10","Edge 86.0.622.56","1920x1080","1920x937","DiagramNoFeedback","DiagramNoFeedback","DiagramNoFeedback",10,"1",2,"JoL1","Three","response_button_text",65626.4964771186,NA,NA,"4",1,"MuziekDiagramNoFeedback",NA
"69",1604135159574,1,"31/10/2020 10:05:59","BLIND",1677988,NA,"complete",NA,"5f9d23e0267c432304f67e18","computer","Desktop or Laptop","Windows 10","Edge 86.0.622.56","1920x1080","1920x937","DiagramNoFeedback","DiagramNoFeedback","DiagramNoFeedback",10,"1",3,"Diagram","DiagBox1","response_text_area",65626.4964771186,NA,NA,"vwsLt0QLzF",NA,"MuziekDiagramNoFeedback",NA
"7",1604134253529,1,"31/10/2020 09:50:53","BLIND",1677988,NA,"complete",NA,"5f9d23e0267c432304f67e18","computer","Desktop or Laptop","Windows 10","Edge 86.0.622.56","1920x1080","1920x937","DiagramNoFeedback","DiagramNoFeedback","DiagramNoFeedback",1,"1",3,"Diagram","DiagBox4","response_text_area",65626.4964771186,NA,NA,"NB9x",NA,"SportenDiagramNoFeedback",NA
"70",1604135159575,1,"31/10/2020 10:05:59","BLIND",1677988,NA,"complete",NA,"5f9d23e0267c432304f67e18","computer","Desktop or Laptop","Windows 10","Edge 86.0.622.56","1920x1080","1920x937","DiagramNoFeedback","DiagramNoFeedback","DiagramNoFeedback",10,"1",3,"Diagram","DiagBox2","response_text_area",65626.4964771186,NA,NA,"lC8x",NA,"MuziekDiagramNoFeedback",NA
"71",1604135159576,1,"31/10/2020 10:05:59","BLIND",1677988,NA,"complete",NA,"5f9d23e0267c432304f67e18","computer","Desktop or Laptop","Windows 10","Edge 86.0.622.56","1920x1080","1920x937","DiagramNoFeedback","DiagramNoFeedback","DiagramNoFeedback",10,"1",3,"Diagram","DiagBox3","response_text_area",65626.4964771186,NA,NA,"2w",NA,"MuziekDiagramNoFeedback",NA
"72",1604135159576,1,"31/10/2020 10:05:59","BLIND",1677988,NA,"complete",NA,"5f9d23e0267c432304f67e18","computer","Desktop or Laptop","Windows 10","Edge 86.0.622.56","1920x1080","1920x937","DiagramNoFeedback","DiagramNoFeedback","DiagramNoFeedback",10,"1",3,"Diagram","DiagBox4","response_text_area",65626.4964771186,NA,NA,"ZfIlTPi",NA,"MuziekDiagramNoFeedback",NA
"73",1604135159576,1,"31/10/2020 10:05:59","BLIND",1677988,NA,"complete",NA,"5f9d23e0267c432304f67e18","computer","Desktop or Laptop","Windows 10","Edge 86.0.622.56","1920x1080","1920x937","DiagramNoFeedback","DiagramNoFeedback","DiagramNoFeedback",10,"1",3,"Diagram","Zone1","continue_button",65626.4964771186,NA,NA,"",NA,"MuziekDiagramNoFeedback",NA
"74",1604135161120,1,"31/10/2020 10:06:01","BLIND",1677988,NA,"complete",NA,"5f9d23e0267c432304f67e18","computer","Desktop or Laptop","Windows 10","Edge 86.0.622.56","1920x1080","1920x937","DiagramNoFeedback","DiagramNoFeedback","DiagramNoFeedback",10,"1",4,"OwnDiagram","Zone1","continue_button",65626.4964771186,NA,NA,"",NA,"MuziekDiagramNoFeedback",NA
"75",1604135162048,1,"31/10/2020 10:06:02","BLIND",1677988,NA,"complete",NA,"5f9d23e0267c432304f67e18","computer","Desktop or Laptop","Windows 10","Edge 86.0.622.56","1920x1080","1920x937","DiagramNoFeedback","DiagramNoFeedback","DiagramNoFeedback",10,"1",5,"JoL2","Two","response_button_text",65626.4964771186,NA,NA,"4",1,"MuziekDiagramNoFeedback",NA
"76",1604135163191,1,"31/10/2020 10:06:03","BLIND",1677988,NA,"complete",NA,"5f9d23e0267c432304f67e18","computer","Desktop or Laptop","Windows 10","Edge 86.0.622.56","1920x1080","1920x937","DiagramNoFeedback","DiagramNoFeedback","DiagramNoFeedback",10,"1",6,"InstructieToets","advancementZone","continue_button",65626.4964771186,NA,NA,"",NA,"MuziekDiagramNoFeedback",NA
"77",1604135223144,1,"31/10/2020 10:07:03","BLIND",1677988,NA,"complete",NA,"5f9d23e0267c432304f67e18","computer","Desktop or Laptop","Windows 10","Edge 86.0.622.56","1920x1080","1920x937","DiagramNoFeedback","DiagramNoFeedback","DiagramNoFeedback",10,"1",7,"Test","buttonA","response_text_area",65626.4964771186,NA,NA,"oxTW",NA,"MuziekDiagramNoFeedback",NA
"78",1604135223146,1,"31/10/2020 10:07:03","BLIND",1677988,NA,"complete",NA,"5f9d23e0267c432304f67e18","computer","Desktop or Laptop","Windows 10","Edge 86.0.622.56","1920x1080","1920x937","DiagramNoFeedback","DiagramNoFeedback","DiagramNoFeedback",10,"1",7,"Test","buttonB","continue_button",65626.4964771186,NA,NA,"",NA,"MuziekDiagramNoFeedback",NA
"79",1604135224834,1,"31/10/2020 10:07:04","BLIND",1677988,NA,"complete",NA,"5f9d23e0267c432304f67e18","computer","Desktop or Laptop","Windows 10","Edge 86.0.622.56","1920x1080","1920x937","DiagramNoFeedback","DiagramNoFeedback","DiagramNoFeedback",11,"5",1,"ReadyForNext","advancementZone","continue_button",65626.4964771186,NA,NA,"",NA,"ReadyForNextTextScreen",NA
"8",1604134253529,1,"31/10/2020 09:50:53","BLIND",1677988,NA,"complete",NA,"5f9d23e0267c432304f67e18","computer","Desktop or Laptop","Windows 10","Edge 86.0.622.56","1920x1080","1920x937","DiagramNoFeedback","DiagramNoFeedback","DiagramNoFeedback",1,"1",3,"Diagram","Zone1","continue_button",65626.4964771186,NA,NA,"",NA,"SportenDiagramNoFeedback",NA
"80",1604135310495,1,"31/10/2020 10:08:30","BLIND",1677988,NA,"complete",NA,"5f9d23e0267c432304f67e18","computer","Desktop or Laptop","Windows 10","Edge 86.0.622.56","1920x1080","1920x937","DiagramNoFeedback","DiagramNoFeedback","DiagramNoFeedback",12,"1",1,"Text","advancementZone","continue_button",65626.4964771186,NA,NA,"",NA,"GeldDiagramNoFeedback",NA
"81",1604135311647,1,"31/10/2020 10:08:31","BLIND",1677988,NA,"complete",NA,"5f9d23e0267c432304f67e18","computer","Desktop or Laptop","Windows 10","Edge 86.0.622.56","1920x1080","1920x937","DiagramNoFeedback","DiagramNoFeedback","DiagramNoFeedback",12,"1",2,"JoL1","Three","response_button_text",65626.4964771186,NA,NA,"4",1,"GeldDiagramNoFeedback",NA
"82",1604135368017,1,"31/10/2020 10:09:28","BLIND",1677988,NA,"complete",NA,"5f9d23e0267c432304f67e18","computer","Desktop or Laptop","Windows 10","Edge 86.0.622.56","1920x1080","1920x937","DiagramNoFeedback","DiagramNoFeedback","DiagramNoFeedback",12,"1",3,"Diagram","DiagBox2","response_text_area",65626.4964771186,NA,NA,"1HTT8N2DFp",NA,"GeldDiagramNoFeedback",NA
"83",1604135368018,1,"31/10/2020 10:09:28","BLIND",1677988,NA,"complete",NA,"5f9d23e0267c432304f67e18","computer","Desktop or Laptop","Windows 10","Edge 86.0.622.56","1920x1080","1920x937","DiagramNoFeedback","DiagramNoFeedback","DiagramNoFeedback",12,"1",3,"Diagram","DiagBox3","response_text_area",65626.4964771186,NA,NA,"cpoQOQx72e",NA,"GeldDiagramNoFeedback",NA
"84",1604135368018,1,"31/10/2020 10:09:28","BLIND",1677988,NA,"complete",NA,"5f9d23e0267c432304f67e18","computer","Desktop or Laptop","Windows 10","Edge 86.0.622.56","1920x1080","1920x937","DiagramNoFeedback","DiagramNoFeedback","DiagramNoFeedback",12,"1",3,"Diagram","DiagBox4","response_text_area",65626.4964771186,NA,NA,"?",NA,"GeldDiagramNoFeedback",NA
"85",1604135368018,1,"31/10/2020 10:09:28","BLIND",1677988,NA,"complete",NA,"5f9d23e0267c432304f67e18","computer","Desktop or Laptop","Windows 10","Edge 86.0.622.56","1920x1080","1920x937","DiagramNoFeedback","DiagramNoFeedback","DiagramNoFeedback",12,"1",3,"Diagram","DiagBox1","response_text_area",65626.4964771186,NA,NA,"JH5b7",NA,"GeldDiagramNoFeedback",NA
"86",1604135368019,1,"31/10/2020 10:09:28","BLIND",1677988,NA,"complete",NA,"5f9d23e0267c432304f67e18","computer","Desktop or Laptop","Windows 10","Edge 86.0.622.56","1920x1080","1920x937","DiagramNoFeedback","DiagramNoFeedback","DiagramNoFeedback",12,"1",3,"Diagram","Zone1","continue_button",65626.4964771186,NA,NA,"",NA,"GeldDiagramNoFeedback",NA
"87",1604135369596,1,"31/10/2020 10:09:29","BLIND",1677988,NA,"complete",NA,"5f9d23e0267c432304f67e18","computer","Desktop or Laptop","Windows 10","Edge 86.0.622.56","1920x1080","1920x937","DiagramNoFeedback","DiagramNoFeedback","DiagramNoFeedback",12,"1",4,"OwnDiagram","Zone1","continue_button",65626.4964771186,NA,NA,"",NA,"GeldDiagramNoFeedback",NA
"88",1604135371115,1,"31/10/2020 10:09:31","BLIND",1677988,NA,"complete",NA,"5f9d23e0267c432304f67e18","computer","Desktop or Laptop","Windows 10","Edge 86.0.622.56","1920x1080","1920x937","DiagramNoFeedback","DiagramNoFeedback","DiagramNoFeedback",12,"1",5,"JoL2","One","response_button_text",65626.4964771186,NA,NA,"4",1,"GeldDiagramNoFeedback",NA
"89",1604135372388,1,"31/10/2020 10:09:32","BLIND",1677988,NA,"complete",NA,"5f9d23e0267c432304f67e18","computer","Desktop or Laptop","Windows 10","Edge 86.0.622.56","1920x1080","1920x937","DiagramNoFeedback","DiagramNoFeedback","DiagramNoFeedback",12,"1",6,"InstructieToets","advancementZone","continue_button",65626.4964771186,NA,NA,"",NA,"GeldDiagramNoFeedback",NA
"9",1604134258272,1,"31/10/2020 09:50:58","BLIND",1677988,NA,"complete",NA,"5f9d23e0267c432304f67e18","computer","Desktop or Laptop","Windows 10","Edge 86.0.622.56","1920x1080","1920x937","DiagramNoFeedback","DiagramNoFeedback","DiagramNoFeedback",1,"1",4,"OwnDiagram","Zone1","continue_button",65626.4964771186,NA,NA,"",NA,"SportenDiagramNoFeedback",NA
"90",1604135424298,1,"31/10/2020 10:10:24","BLIND",1677988,NA,"complete",NA,"5f9d23e0267c432304f67e18","computer","Desktop or Laptop","Windows 10","Edge 86.0.622.56","1920x1080","1920x937","DiagramNoFeedback","DiagramNoFeedback","DiagramNoFeedback",12,"1",7,"Test","buttonA","response_text_area",65626.4964771186,NA,NA,"3ys",NA,"GeldDiagramNoFeedback",NA
"91",1604135424299,1,"31/10/2020 10:10:24","BLIND",1677988,NA,"complete",NA,"5f9d23e0267c432304f67e18","computer","Desktop or Laptop","Windows 10","Edge 86.0.622.56","1920x1080","1920x937","DiagramNoFeedback","DiagramNoFeedback","DiagramNoFeedback",12,"1",7,"Test","buttonB","continue_button",65626.4964771186,NA,NA,"",NA,"GeldDiagramNoFeedback",NA
"92",1604135424302,1,"31/10/2020 10:10:24","BLIND",1677988,NA,"complete",NA,"5f9d23e0267c432304f67e18","computer","Desktop or Laptop","Windows 10","Edge 86.0.622.56","1920x1080","1920x937","DiagramNoFeedback","DiagramNoFeedback","",NA,"END TASK",NA,"","","",1291238,NA,NA,"",NA,"",NA
"1",1604174734718,1,"31/10/2020 21:05:34","BLIND",2305701,NA,"complete",NA,"5f9dc268f62942336d200402","computer","Desktop or Laptop","Windows 10","Chrome 86.0.4240.111","1920x1080","1920x937","DiagramNoFeedback","DiagramNoFeedback","",NA,"BEGIN TASK",NA,"","","",NA,NA,NA,"",NA,"",NA
"10",1604174927049,1,"31/10/2020 21:08:47","BLIND",2305701,NA,"complete",NA,"5f9dc268f62942336d200402","computer","Desktop or Laptop","Windows 10","Chrome 86.0.4240.111","1920x1080","1920x937","DiagramNoFeedback","DiagramNoFeedback","DiagramNoFeedback",1,"1",5,"JoL2","Three","response_button_text",65626.4964771186,NA,NA,"4",1,"SportenDiagramNoFeedback",NA
"11",1604174929760,1,"31/10/2020 21:08:49","BLIND",2305701,NA,"complete",NA,"5f9dc268f62942336d200402","computer","Desktop or Laptop","Windows 10","Chrome 86.0.4240.111","1920x1080","1920x937","DiagramNoFeedback","DiagramNoFeedback","DiagramNoFeedback",1,"1",6,"InstructieToets","advancementZone","continue_button",65626.4964771186,NA,NA,"",NA,"SportenDiagramNoFeedback",NA
"12",1604175026328,1,"31/10/2020 21:10:26","BLIND",2305701,NA,"complete",NA,"5f9dc268f62942336d200402","computer","Desktop or Laptop","Windows 10","Chrome 86.0.4240.111","1920x1080","1920x937","DiagramNoFeedback","DiagramNoFeedback","DiagramNoFeedback",1,"1",7,"Test","buttonA","response_text_area",65626.4964771186,NA,NA,"yvb",NA,"SportenDiagramNoFeedback",NA
"13",1604175026331,1,"31/10/2020 21:10:26","BLIND",2305701,NA,"complete",NA,"5f9dc268f62942336d200402","computer","Desktop or Laptop","Windows 10","Chrome 86.0.4240.111","1920x1080","1920x937","DiagramNoFeedback","DiagramNoFeedback","DiagramNoFeedback",1,"1",7,"Test","buttonB","continue_button",65626.4964771186,NA,NA,"",NA,"SportenDiagramNoFeedback",NA
"14",1604175028647,1,"31/10/2020 21:10:28","BLIND",2305701,NA,"complete",NA,"5f9dc268f62942336d200402","computer","Desktop or Laptop","Windows 10","Chrome 86.0.4240.111","1920x1080","1920x937","DiagramNoFeedback","DiagramNoFeedback","DiagramNoFeedback",1,"1",8,"Klaar4Experiment","advancementZone","continue_button",65626.4964771186,NA,NA,"",NA,"SportenDiagramNoFeedback",NA
"15",1604175096501,1,"31/10/2020 21:11:36","BLIND",2305701,NA,"complete",NA,"5f9dc268f62942336d200402","computer","Desktop or Laptop","Windows 10","Chrome 86.0.4240.111","1920x1080","1920x937","DiagramNoFeedback","DiagramNoFeedback","DiagramNoFeedback",10,"1",1,"Text","advancementZone","continue_button",65626.4964771186,NA,NA,"",NA,"MuziekDiagramNoFeedback",NA
"16",1604175097902,1,"31/10/2020 21:11:37","BLIND",2305701,NA,"complete",NA,"5f9dc268f62942336d200402","computer","Desktop or Laptop","Windows 10","Chrome 86.0.4240.111","1920x1080","1920x937","DiagramNoFeedback","DiagramNoFeedback","DiagramNoFeedback",10,"1",2,"JoL1","Two","response_button_text",65626.4964771186,NA,NA,"4",1,"MuziekDiagramNoFeedback",NA
"17",1604175179052,1,"31/10/2020 21:12:59","BLIND",2305701,NA,"complete",NA,"5f9dc268f62942336d200402","computer","Desktop or Laptop","Windows 10","Chrome 86.0.4240.111","1920x1080","1920x937","DiagramNoFeedback","DiagramNoFeedback","DiagramNoFeedback",10,"1",3,"Diagram","DiagBox1","response_text_area",65626.4964771186,NA,NA,"wcDbc",NA,"MuziekDiagramNoFeedback",NA
"18",1604175179056,1,"31/10/2020 21:12:59","BLIND",2305701,NA,"complete",NA,"5f9dc268f62942336d200402","computer","Desktop or Laptop","Windows 10","Chrome 86.0.4240.111","1920x1080","1920x937","DiagramNoFeedback","DiagramNoFeedback","DiagramNoFeedback",10,"1",3,"Diagram","DiagBox2","response_text_area",65626.4964771186,NA,NA,"Y88a",NA,"MuziekDiagramNoFeedback",NA
"19",1604175179057,1,"31/10/2020 21:12:59","BLIND",2305701,NA,"complete",NA,"5f9dc268f62942336d200402","computer","Desktop or Laptop","Windows 10","Chrome 86.0.4240.111","1920x1080","1920x937","DiagramNoFeedback","DiagramNoFeedback","DiagramNoFeedback",10,"1",3,"Diagram","DiagBox3","response_text_area",65626.4964771186,NA,NA,"UB",NA,"MuziekDiagramNoFeedback",NA
"2",1604174765532,1,"31/10/2020 21:06:05","BLIND",2305701,NA,"complete",NA,"5f9dc268f62942336d200402","computer","Desktop or Laptop","Windows 10","Chrome 86.0.4240.111","1920x1080","1920x937","DiagramNoFeedback","DiagramNoFeedback","DiagramNoFeedback",1,"1",1,"Text","advancementZone","continue_button",65626.4964771186,NA,NA,"",NA,"SportenDiagramNoFeedback",NA
"20",1604175179057,1,"31/10/2020 21:12:59","BLIND",2305701,NA,"complete",NA,"5f9dc268f62942336d200402","computer","Desktop or Laptop","Windows 10","Chrome 86.0.4240.111","1920x1080","1920x937","DiagramNoFeedback","DiagramNoFeedback","DiagramNoFeedback",10,"1",3,"Diagram","DiagBox4","response_text_area",65626.4964771186,NA,NA,"v6792I1",NA,"MuziekDiagramNoFeedback",NA
"21",1604175179057,1,"31/10/2020 21:12:59","BLIND",2305701,NA,"complete",NA,"5f9dc268f62942336d200402","computer","Desktop or Laptop","Windows 10","Chrome 86.0.4240.111","1920x1080","1920x937","DiagramNoFeedback","DiagramNoFeedback","DiagramNoFeedback",10,"1",3,"Diagram","Zone1","continue_button",65626.4964771186,NA,NA,"",NA,"MuziekDiagramNoFeedback",NA
"22",1604175184260,1,"31/10/2020 21:13:04","BLIND",2305701,NA,"complete",NA,"5f9dc268f62942336d200402","computer","Desktop or Laptop","Windows 10","Chrome 86.0.4240.111","1920x1080","1920x937","DiagramNoFeedback","DiagramNoFeedback","DiagramNoFeedback",10,"1",4,"OwnDiagram","Zone1","continue_button",65626.4964771186,NA,NA,"",NA,"MuziekDiagramNoFeedback",NA
"23",1604175185120,1,"31/10/2020 21:13:05","BLIND",2305701,NA,"complete",NA,"5f9dc268f62942336d200402","computer","Desktop or Laptop","Windows 10","Chrome 86.0.4240.111","1920x1080","1920x937","DiagramNoFeedback","DiagramNoFeedback","DiagramNoFeedback",10,"1",5,"JoL2","Three","response_button_text",65626.4964771186,NA,NA,"4",1,"MuziekDiagramNoFeedback",NA
"24",1604175188723,1,"31/10/2020 21:13:08","BLIND",2305701,NA,"complete",NA,"5f9dc268f62942336d200402","computer","Desktop or Laptop","Windows 10","Chrome 86.0.4240.111","1920x1080","1920x937","DiagramNoFeedback","DiagramNoFeedback","DiagramNoFeedback",10,"1",6,"InstructieToets","advancementZone","continue_button",65626.4964771186,NA,NA,"",NA,"MuziekDiagramNoFeedback",NA
"25",1604175294454,1,"31/10/2020 21:14:54","BLIND",2305701,NA,"complete",NA,"5f9dc268f62942336d200402","computer","Desktop or Laptop","Windows 10","Chrome 86.0.4240.111","1920x1080","1920x937","DiagramNoFeedback","DiagramNoFeedback","DiagramNoFeedback",10,"1",7,"Test","buttonA","response_text_area",65626.4964771186,NA,NA,"G8PdtTHx",NA,"MuziekDiagramNoFeedback",NA
"26",1604175294459,1,"31/10/2020 21:14:54","BLIND",2305701,NA,"complete",NA,"5f9dc268f62942336d200402","computer","Desktop or Laptop","Windows 10","Chrome 86.0.4240.111","1920x1080","1920x937","DiagramNoFeedback","DiagramNoFeedback","DiagramNoFeedback",10,"1",7,"Test","buttonB","continue_button",65626.4964771186,NA,NA,"",NA,"MuziekDiagramNoFeedback",NA
"27",1604175298495,1,"31/10/2020 21:14:58","BLIND",2305701,NA,"complete",NA,"5f9dc268f62942336d200402","computer","Desktop or Laptop","Windows 10","Chrome 86.0.4240.111","1920x1080","1920x937","DiagramNoFeedback","DiagramNoFeedback","DiagramNoFeedback",3,"1",1,"ReadyForNext","advancementZone","continue_button",65626.4964771186,NA,NA,"",NA,"ReadyForNextTextScreen",NA
"28",1604175355851,1,"31/10/2020 21:15:55","BLIND",2305701,NA,"complete",NA,"5f9dc268f62942336d200402","computer","Desktop or Laptop","Windows 10","Chrome 86.0.4240.111","1920x1080","1920x937","DiagramNoFeedback","DiagramNoFeedback","DiagramNoFeedback",4,"1",1,"Text","advancementZone","continue_button",65626.4964771186,NA,NA,"",NA,"BetonDiagramNoFeedback",NA
"29",1604175357262,1,"31/10/2020 21:15:57","BLIND",2305701,NA,"complete",NA,"5f9dc268f62942336d200402","computer","Desktop or Laptop","Windows 10","Chrome 86.0.4240.111","1920x1080","1920x937","DiagramNoFeedback","DiagramNoFeedback","DiagramNoFeedback",4,"1",2,"JoL1","Three","response_button_text",65626.4964771186,NA,NA,"4",1,"BetonDiagramNoFeedback",NA
"3",1604174767993,1,"31/10/2020 21:06:07","BLIND",2305701,NA,"complete",NA,"5f9dc268f62942336d200402","computer","Desktop or Laptop","Windows 10","Chrome 86.0.4240.111","1920x1080","1920x937","DiagramNoFeedback","DiagramNoFeedback","DiagramNoFeedback",1,"1",2,"JoL1","Three","response_button_text",65626.4964771186,NA,NA,"4",1,"SportenDiagramNoFeedback",NA
"30",1604175438071,1,"31/10/2020 21:17:18","BLIND",2305701,NA,"complete",NA,"5f9dc268f62942336d200402","computer","Desktop or Laptop","Windows 10","Chrome 86.0.4240.111","1920x1080","1920x937","DiagramNoFeedback","DiagramNoFeedback","DiagramNoFeedback",4,"1",3,"Diagram","DiagBox2","response_text_area",65626.4964771186,NA,NA,"4aw6DbeF",NA,"BetonDiagramNoFeedback",NA
"31",1604175438075,1,"31/10/2020 21:17:18","BLIND",2305701,NA,"complete",NA,"5f9dc268f62942336d200402","computer","Desktop or Laptop","Windows 10","Chrome 86.0.4240.111","1920x1080","1920x937","DiagramNoFeedback","DiagramNoFeedback","DiagramNoFeedback",4,"1",3,"Diagram","DiagBox3","response_text_area",65626.4964771186,NA,NA,"8R",NA,"BetonDiagramNoFeedback",NA
"32",1604175438075,1,"31/10/2020 21:17:18","BLIND",2305701,NA,"complete",NA,"5f9dc268f62942336d200402","computer","Desktop or Laptop","Windows 10","Chrome 86.0.4240.111","1920x1080","1920x937","DiagramNoFeedback","DiagramNoFeedback","DiagramNoFeedback",4,"1",3,"Diagram","DiagBox4","response_text_area",65626.4964771186,NA,NA,"0Ms",NA,"BetonDiagramNoFeedback",NA
"33",1604175438075,1,"31/10/2020 21:17:18","BLIND",2305701,NA,"complete",NA,"5f9dc268f62942336d200402","computer","Desktop or Laptop","Windows 10","Chrome 86.0.4240.111","1920x1080","1920x937","DiagramNoFeedback","DiagramNoFeedback","DiagramNoFeedback",4,"1",3,"Diagram","DiagBox1","response_text_area",65626.4964771186,NA,NA,"tL",NA,"BetonDiagramNoFeedback",NA
"34",1604175438076,1,"31/10/2020 21:17:18","BLIND",2305701,NA,"complete",NA,"5f9dc268f62942336d200402","computer","Desktop or Laptop","Windows 10","Chrome 86.0.4240.111","1920x1080","1920x937","DiagramNoFeedback","DiagramNoFeedback","DiagramNoFeedback",4,"1",3,"Diagram","Zone1","continue_button",65626.4964771186,NA,NA,"",NA,"BetonDiagramNoFeedback",NA
"35",1604175439695,1,"31/10/2020 21:17:19","BLIND",2305701,NA,"complete",NA,"5f9dc268f62942336d200402","computer","Desktop or Laptop","Windows 10","Chrome 86.0.4240.111","1920x1080","1920x937","DiagramNoFeedback","DiagramNoFeedback","DiagramNoFeedback",4,"1",4,"OwnDiagram","Zone1","continue_button",65626.4964771186,NA,NA,"",NA,"BetonDiagramNoFeedback",NA
"36",1604175440313,1,"31/10/2020 21:17:20","BLIND",2305701,NA,"complete",NA,"5f9dc268f62942336d200402","computer","Desktop or Laptop","Windows 10","Chrome 86.0.4240.111","1920x1080","1920x937","DiagramNoFeedback","DiagramNoFeedback","DiagramNoFeedback",4,"1",5,"JoL2","Four","response_button_text",65626.4964771186,NA,NA,"4",1,"BetonDiagramNoFeedback",NA
"37",1604175442906,1,"31/10/2020 21:17:22","BLIND",2305701,NA,"complete",NA,"5f9dc268f62942336d200402","computer","Desktop or Laptop","Windows 10","Chrome 86.0.4240.111","1920x1080","1920x937","DiagramNoFeedback","DiagramNoFeedback","DiagramNoFeedback",4,"1",6,"InstructieToets","advancementZone","continue_button",65626.4964771186,NA,NA,"",NA,"BetonDiagramNoFeedback",NA
"38",1604175510035,1,"31/10/2020 21:18:30","BLIND",2305701,NA,"complete",NA,"5f9dc268f62942336d200402","computer","Desktop or Laptop","Windows 10","Chrome 86.0.4240.111","1920x1080","1920x937","DiagramNoFeedback","DiagramNoFeedback","DiagramNoFeedback",4,"1",7,"Test","buttonA","response_text_area",65626.4964771186,NA,NA,"KutmgMl",NA,"BetonDiagramNoFeedback",NA
"39",1604175510037,1,"31/10/2020 21:18:30","BLIND",2305701,NA,"complete",NA,"5f9dc268f62942336d200402","computer","Desktop or Laptop","Windows 10","Chrome 86.0.4240.111","1920x1080","1920x937","DiagramNoFeedback","DiagramNoFeedback","DiagramNoFeedback",4,"1",7,"Test","buttonB","continue_button",65626.4964771186,NA,NA,"",NA,"BetonDiagramNoFeedback",NA
"4",1604174920064,1,"31/10/2020 21:08:40","BLIND",2305701,NA,"complete",NA,"5f9dc268f62942336d200402","computer","Desktop or Laptop","Windows 10","Chrome 86.0.4240.111","1920x1080","1920x937","DiagramNoFeedback","DiagramNoFeedback","DiagramNoFeedback",1,"1",3,"Diagram","DiagBox1","response_text_area",65626.4964771186,NA,NA,"2SNzDR",NA,"SportenDiagramNoFeedback",NA
"40",1604175511616,1,"31/10/2020 21:18:31","BLIND",2305701,NA,"complete",NA,"5f9dc268f62942336d200402","computer","Desktop or Laptop","Windows 10","Chrome 86.0.4240.111","1920x1080","1920x937","DiagramNoFeedback","DiagramNoFeedback","DiagramNoFeedback",5,"2",1,"ReadyForNext","advancementZone","continue_button",65626.4964771186,NA,NA,"",NA,"ReadyForNextTextScreen",NA
"41",1604175618610,1,"31/10/2020 21:20:18","BLIND",2305701,NA,"complete",NA,"5f9dc268f62942336d200402","computer","Desktop or Laptop","Windows 10","Chrome 86.0.4240.111","1920x1080","1920x937","DiagramNoFeedback","DiagramNoFeedback","DiagramNoFeedback",6,"1",1,"Text","advancementZone","continue_button",65626.4964771186,NA,NA,"",NA,"SuezDiagramNoFeedback",NA
"42",1604175620060,1,"31/10/2020 21:20:20","BLIND",2305701,NA,"complete",NA,"5f9dc268f62942336d200402","computer","Desktop or Laptop","Windows 10","Chrome 86.0.4240.111","1920x1080","1920x937","DiagramNoFeedback","DiagramNoFeedback","DiagramNoFeedback",6,"1",2,"JoL1","Two","response_button_text",65626.4964771186,NA,NA,"4",1,"SuezDiagramNoFeedback",NA
"43",1604175690273,1,"31/10/2020 21:21:30","BLIND",2305701,NA,"complete",NA,"5f9dc268f62942336d200402","computer","Desktop or Laptop","Windows 10","Chrome 86.0.4240.111","1920x1080","1920x937","DiagramNoFeedback","DiagramNoFeedback","DiagramNoFeedback",6,"1",3,"Diagram","DiagBox2","response_text_area",65626.4964771186,NA,NA,"puAQ7dSwZ",NA,"SuezDiagramNoFeedback",NA
"44",1604175690275,1,"31/10/2020 21:21:30","BLIND",2305701,NA,"complete",NA,"5f9dc268f62942336d200402","computer","Desktop or Laptop","Windows 10","Chrome 86.0.4240.111","1920x1080","1920x937","DiagramNoFeedback","DiagramNoFeedback","DiagramNoFeedback",6,"1",3,"Diagram","DiagBox3","response_text_area",65626.4964771186,NA,NA,"AXy",NA,"SuezDiagramNoFeedback",NA
"45",1604175690275,1,"31/10/2020 21:21:30","BLIND",2305701,NA,"complete",NA,"5f9dc268f62942336d200402","computer","Desktop or Laptop","Windows 10","Chrome 86.0.4240.111","1920x1080","1920x937","DiagramNoFeedback","DiagramNoFeedback","DiagramNoFeedback",6,"1",3,"Diagram","DiagBox4","response_text_area",65626.4964771186,NA,NA,"v335I",NA,"SuezDiagramNoFeedback",NA
"46",1604175690276,1,"31/10/2020 21:21:30","BLIND",2305701,NA,"complete",NA,"5f9dc268f62942336d200402","computer","Desktop or Laptop","Windows 10","Chrome 86.0.4240.111","1920x1080","1920x937","DiagramNoFeedback","DiagramNoFeedback","DiagramNoFeedback",6,"1",3,"Diagram","DiagBox1","response_text_area",65626.4964771186,NA,NA,"9XB4yc2",NA,"SuezDiagramNoFeedback",NA
"47",1604175690276,1,"31/10/2020 21:21:30","BLIND",2305701,NA,"complete",NA,"5f9dc268f62942336d200402","computer","Desktop or Laptop","Windows 10","Chrome 86.0.4240.111","1920x1080","1920x937","DiagramNoFeedback","DiagramNoFeedback","DiagramNoFeedback",6,"1",3,"Diagram","Zone1","continue_button",65626.4964771186,NA,NA,"",NA,"SuezDiagramNoFeedback",NA
"48",1604175693307,1,"31/10/2020 21:21:33","BLIND",2305701,NA,"complete",NA,"5f9dc268f62942336d200402","computer","Desktop or Laptop","Windows 10","Chrome 86.0.4240.111","1920x1080","1920x937","DiagramNoFeedback","DiagramNoFeedback","DiagramNoFeedback",6,"1",4,"OwnDiagram","Zone1","continue_button",65626.4964771186,NA,NA,"",NA,"SuezDiagramNoFeedback",NA
"49",1604175694072,1,"31/10/2020 21:21:34","BLIND",2305701,NA,"complete",NA,"5f9dc268f62942336d200402","computer","Desktop or Laptop","Windows 10","Chrome 86.0.4240.111","1920x1080","1920x937","DiagramNoFeedback","DiagramNoFeedback","DiagramNoFeedback",6,"1",5,"JoL2","Three","response_button_text",65626.4964771186,NA,NA,"4",1,"SuezDiagramNoFeedback",NA
"5",1604174920068,1,"31/10/2020 21:08:40","BLIND",2305701,NA,"complete",NA,"5f9dc268f62942336d200402","computer","Desktop or Laptop","Windows 10","Chrome 86.0.4240.111","1920x1080","1920x937","DiagramNoFeedback","DiagramNoFeedback","DiagramNoFeedback",1,"1",3,"Diagram","DiagBox2","response_text_area",65626.4964771186,NA,NA,"Dkr",NA,"SportenDiagramNoFeedback",NA
"50",1604175697023,1,"31/10/2020 21:21:37","BLIND",2305701,NA,"complete",NA,"5f9dc268f62942336d200402","computer","Desktop or Laptop","Windows 10","Chrome 86.0.4240.111","1920x1080","1920x937","DiagramNoFeedback","DiagramNoFeedback","DiagramNoFeedback",6,"1",6,"InstructieToets","advancementZone","continue_button",65626.4964771186,NA,NA,"",NA,"SuezDiagramNoFeedback",NA
"51",1604175758589,1,"31/10/2020 21:22:38","BLIND",2305701,NA,"complete",NA,"5f9dc268f62942336d200402","computer","Desktop or Laptop","Windows 10","Chrome 86.0.4240.111","1920x1080","1920x937","DiagramNoFeedback","DiagramNoFeedback","DiagramNoFeedback",6,"1",7,"Test","buttonA","response_text_area",65626.4964771186,NA,NA,"tokCbRqP",NA,"SuezDiagramNoFeedback",NA
"52",1604175758590,1,"31/10/2020 21:22:38","BLIND",2305701,NA,"complete",NA,"5f9dc268f62942336d200402","computer","Desktop or Laptop","Windows 10","Chrome 86.0.4240.111","1920x1080","1920x937","DiagramNoFeedback","DiagramNoFeedback","DiagramNoFeedback",6,"1",7,"Test","buttonB","continue_button",65626.4964771186,NA,NA,"",NA,"SuezDiagramNoFeedback",NA
"53",1604175760493,1,"31/10/2020 21:22:40","BLIND",2305701,NA,"complete",NA,"5f9dc268f62942336d200402","computer","Desktop or Laptop","Windows 10","Chrome 86.0.4240.111","1920x1080","1920x937","DiagramNoFeedback","DiagramNoFeedback","DiagramNoFeedback",7,"3",1,"ReadyForNext","advancementZone","continue_button",65626.4964771186,NA,NA,"",NA,"ReadyForNextTextScreen",NA
"54",1604175819137,1,"31/10/2020 21:23:39","BLIND",2305701,NA,"complete",NA,"5f9dc268f62942336d200402","computer","Desktop or Laptop","Windows 10","Chrome 86.0.4240.111","1920x1080","1920x937","DiagramNoFeedback","DiagramNoFeedback","DiagramNoFeedback",2,"1",1,"Text","advancementZone","continue_button",65626.4964771186,NA,NA,"",NA,"MetroDiagramNoFeedback",NA
"55",1604175820544,1,"31/10/2020 21:23:40","BLIND",2305701,NA,"complete",NA,"5f9dc268f62942336d200402","computer","Desktop or Laptop","Windows 10","Chrome 86.0.4240.111","1920x1080","1920x937","DiagramNoFeedback","DiagramNoFeedback","DiagramNoFeedback",2,"1",2,"JoL1","Three","response_button_text",65626.4964771186,NA,NA,"4",1,"MetroDiagramNoFeedback",NA
"56",1604175881740,1,"31/10/2020 21:24:41","BLIND",2305701,NA,"complete",NA,"5f9dc268f62942336d200402","computer","Desktop or Laptop","Windows 10","Chrome 86.0.4240.111","1920x1080","1920x937","DiagramNoFeedback","DiagramNoFeedback","DiagramNoFeedback",2,"1",3,"Diagram","DiagBox1","response_text_area",65626.4964771186,NA,NA,"3Koj",NA,"MetroDiagramNoFeedback",NA
"57",1604175881745,1,"31/10/2020 21:24:41","BLIND",2305701,NA,"complete",NA,"5f9dc268f62942336d200402","computer","Desktop or Laptop","Windows 10","Chrome 86.0.4240.111","1920x1080","1920x937","DiagramNoFeedback","DiagramNoFeedback","DiagramNoFeedback",2,"1",3,"Diagram","DiagBox3","response_text_area",65626.4964771186,NA,NA,"OK5",NA,"MetroDiagramNoFeedback",NA
"58",1604175881745,1,"31/10/2020 21:24:41","BLIND",2305701,NA,"complete",NA,"5f9dc268f62942336d200402","computer","Desktop or Laptop","Windows 10","Chrome 86.0.4240.111","1920x1080","1920x937","DiagramNoFeedback","DiagramNoFeedback","DiagramNoFeedback",2,"1",3,"Diagram","DiagBox4","response_text_area",65626.4964771186,NA,NA,"Pd",NA,"MetroDiagramNoFeedback",NA
"59",1604175881745,1,"31/10/2020 21:24:41","BLIND",2305701,NA,"complete",NA,"5f9dc268f62942336d200402","computer","Desktop or Laptop","Windows 10","Chrome 86.0.4240.111","1920x1080","1920x937","DiagramNoFeedback","DiagramNoFeedback","DiagramNoFeedback",2,"1",3,"Diagram","DiagBox2","response_text_area",65626.4964771186,NA,NA,"Cc",NA,"MetroDiagramNoFeedback",NA
"6",1604174920068,1,"31/10/2020 21:08:40","BLIND",2305701,NA,"complete",NA,"5f9dc268f62942336d200402","computer","Desktop or Laptop","Windows 10","Chrome 86.0.4240.111","1920x1080","1920x937","DiagramNoFeedback","DiagramNoFeedback","DiagramNoFeedback",1,"1",3,"Diagram","DiagBox3","response_text_area",65626.4964771186,NA,NA,"SumibNmfSo",NA,"SportenDiagramNoFeedback",NA
"60",1604175881746,1,"31/10/2020 21:24:41","BLIND",2305701,NA,"complete",NA,"5f9dc268f62942336d200402","computer","Desktop or Laptop","Windows 10","Chrome 86.0.4240.111","1920x1080","1920x937","DiagramNoFeedback","DiagramNoFeedback","DiagramNoFeedback",2,"1",3,"Diagram","Zone1","continue_button",65626.4964771186,NA,NA,"",NA,"MetroDiagramNoFeedback",NA
"61",1604175884415,1,"31/10/2020 21:24:44","BLIND",2305701,NA,"complete",NA,"5f9dc268f62942336d200402","computer","Desktop or Laptop","Windows 10","Chrome 86.0.4240.111","1920x1080","1920x937","DiagramNoFeedback","DiagramNoFeedback","DiagramNoFeedback",2,"1",4,"OwnDiagram","Zone1","continue_button",65626.4964771186,NA,NA,"",NA,"MetroDiagramNoFeedback",NA
"62",1604175890544,1,"31/10/2020 21:24:50","BLIND",2305701,NA,"complete",NA,"5f9dc268f62942336d200402","computer","Desktop or Laptop","Windows 10","Chrome 86.0.4240.111","1920x1080","1920x937","DiagramNoFeedback","DiagramNoFeedback","DiagramNoFeedback",2,"1",5,"JoL2","Four","response_button_text",65626.4964771186,NA,NA,"4",1,"MetroDiagramNoFeedback",NA
"63",1604175893717,1,"31/10/2020 21:24:53","BLIND",2305701,NA,"complete",NA,"5f9dc268f62942336d200402","computer","Desktop or Laptop","Windows 10","Chrome 86.0.4240.111","1920x1080","1920x937","DiagramNoFeedback","DiagramNoFeedback","DiagramNoFeedback",2,"1",6,"InstructieToets","advancementZone","continue_button",65626.4964771186,NA,NA,"",NA,"MetroDiagramNoFeedback",NA
"64",1604175976791,1,"31/10/2020 21:26:16","BLIND",2305701,NA,"complete",NA,"5f9dc268f62942336d200402","computer","Desktop or Laptop","Windows 10","Chrome 86.0.4240.111","1920x1080","1920x937","DiagramNoFeedback","DiagramNoFeedback","DiagramNoFeedback",2,"1",7,"Test","buttonA","response_text_area",65626.4964771186,NA,NA,"kzuyjAg8V",NA,"MetroDiagramNoFeedback",NA
"65",1604175976795,1,"31/10/2020 21:26:16","BLIND",2305701,NA,"complete",NA,"5f9dc268f62942336d200402","computer","Desktop or Laptop","Windows 10","Chrome 86.0.4240.111","1920x1080","1920x937","DiagramNoFeedback","DiagramNoFeedback","DiagramNoFeedback",2,"1",7,"Test","buttonB","continue_button",65626.4964771186,NA,NA,"",NA,"MetroDiagramNoFeedback",NA
"66",1604175978468,1,"31/10/2020 21:26:18","BLIND",2305701,NA,"complete",NA,"5f9dc268f62942336d200402","computer","Desktop or Laptop","Windows 10","Chrome 86.0.4240.111","1920x1080","1920x937","DiagramNoFeedback","DiagramNoFeedback","DiagramNoFeedback",9,"4",1,"ReadyForNext","advancementZone","continue_button",65626.4964771186,NA,NA,"",NA,"ReadyForNextTextScreen",NA
"67",1604176042220,1,"31/10/2020 21:27:22","BLIND",2305701,NA,"complete",NA,"5f9dc268f62942336d200402","computer","Desktop or Laptop","Windows 10","Chrome 86.0.4240.111","1920x1080","1920x937","DiagramNoFeedback","DiagramNoFeedback","DiagramNoFeedback",8,"1",1,"Text","advancementZone","continue_button",65626.4964771186,NA,NA,"",NA,"BotoxDiagramNoFeedback",NA
"68",1604176044330,1,"31/10/2020 21:27:24","BLIND",2305701,NA,"complete",NA,"5f9dc268f62942336d200402","computer","Desktop or Laptop","Windows 10","Chrome 86.0.4240.111","1920x1080","1920x937","DiagramNoFeedback","DiagramNoFeedback","DiagramNoFeedback",8,"1",2,"JoL1","Three","response_button_text",65626.4964771186,NA,NA,"4",1,"BotoxDiagramNoFeedback",NA
"69",1604176215846,1,"31/10/2020 21:30:15","BLIND",2305701,NA,"complete",NA,"5f9dc268f62942336d200402","computer","Desktop or Laptop","Windows 10","Chrome 86.0.4240.111","1920x1080","1920x937","DiagramNoFeedback","DiagramNoFeedback","DiagramNoFeedback",8,"1",3,"Diagram","DiagBox3","response_text_area",65626.4964771186,NA,NA,"WVDua3ZZ",NA,"BotoxDiagramNoFeedback",NA
"7",1604174920069,1,"31/10/2020 21:08:40","BLIND",2305701,NA,"complete",NA,"5f9dc268f62942336d200402","computer","Desktop or Laptop","Windows 10","Chrome 86.0.4240.111","1920x1080","1920x937","DiagramNoFeedback","DiagramNoFeedback","DiagramNoFeedback",1,"1",3,"Diagram","DiagBox4","response_text_area",65626.4964771186,NA,NA,"QeZZ8e",NA,"SportenDiagramNoFeedback",NA
"70",1604176215851,1,"31/10/2020 21:30:15","BLIND",2305701,NA,"complete",NA,"5f9dc268f62942336d200402","computer","Desktop or Laptop","Windows 10","Chrome 86.0.4240.111","1920x1080","1920x937","DiagramNoFeedback","DiagramNoFeedback","DiagramNoFeedback",8,"1",3,"Diagram","DiagBox4","response_text_area",65626.4964771186,NA,NA,"Zy",NA,"BotoxDiagramNoFeedback",NA
"71",1604176215851,1,"31/10/2020 21:30:15","BLIND",2305701,NA,"complete",NA,"5f9dc268f62942336d200402","computer","Desktop or Laptop","Windows 10","Chrome 86.0.4240.111","1920x1080","1920x937","DiagramNoFeedback","DiagramNoFeedback","DiagramNoFeedback",8,"1",3,"Diagram","DiagBox2","response_text_area",65626.4964771186,NA,NA,"nu8X3",NA,"BotoxDiagramNoFeedback",NA
"72",1604176215851,1,"31/10/2020 21:30:15","BLIND",2305701,NA,"complete",NA,"5f9dc268f62942336d200402","computer","Desktop or Laptop","Windows 10","Chrome 86.0.4240.111","1920x1080","1920x937","DiagramNoFeedback","DiagramNoFeedback","DiagramNoFeedback",8,"1",3,"Diagram","DiagBox1","response_text_area",65626.4964771186,NA,NA,"DcmFgPxjey",NA,"BotoxDiagramNoFeedback",NA
"73",1604176215851,1,"31/10/2020 21:30:15","BLIND",2305701,NA,"complete",NA,"5f9dc268f62942336d200402","computer","Desktop or Laptop","Windows 10","Chrome 86.0.4240.111","1920x1080","1920x937","DiagramNoFeedback","DiagramNoFeedback","DiagramNoFeedback",8,"1",3,"Diagram","Zone1","continue_button",65626.4964771186,NA,NA,"",NA,"BotoxDiagramNoFeedback",NA
"74",1604176217628,1,"31/10/2020 21:30:17","BLIND",2305701,NA,"complete",NA,"5f9dc268f62942336d200402","computer","Desktop or Laptop","Windows 10","Chrome 86.0.4240.111","1920x1080","1920x937","DiagramNoFeedback","DiagramNoFeedback","DiagramNoFeedback",8,"1",4,"OwnDiagram","Zone1","continue_button",65626.4964771186,NA,NA,"",NA,"BotoxDiagramNoFeedback",NA
"75",1604176219072,1,"31/10/2020 21:30:19","BLIND",2305701,NA,"complete",NA,"5f9dc268f62942336d200402","computer","Desktop or Laptop","Windows 10","Chrome 86.0.4240.111","1920x1080","1920x937","DiagramNoFeedback","DiagramNoFeedback","DiagramNoFeedback",8,"1",5,"JoL2","Two","response_button_text",65626.4964771186,NA,NA,"4",1,"BotoxDiagramNoFeedback",NA
"76",1604176220952,1,"31/10/2020 21:30:20","BLIND",2305701,NA,"complete",NA,"5f9dc268f62942336d200402","computer","Desktop or Laptop","Windows 10","Chrome 86.0.4240.111","1920x1080","1920x937","DiagramNoFeedback","DiagramNoFeedback","DiagramNoFeedback",8,"1",6,"InstructieToets","advancementZone","continue_button",65626.4964771186,NA,NA,"",NA,"BotoxDiagramNoFeedback",NA
"77",1604176403648,1,"31/10/2020 21:33:23","BLIND",2305701,NA,"complete",NA,"5f9dc268f62942336d200402","computer","Desktop or Laptop","Windows 10","Chrome 86.0.4240.111","1920x1080","1920x937","DiagramNoFeedback","DiagramNoFeedback","DiagramNoFeedback",8,"1",7,"Test","buttonA","response_text_area",65626.4964771186,NA,NA,"7VkLNyAGd",NA,"BotoxDiagramNoFeedback",NA
"78",1604176403652,1,"31/10/2020 21:33:23","BLIND",2305701,NA,"complete",NA,"5f9dc268f62942336d200402","computer","Desktop or Laptop","Windows 10","Chrome 86.0.4240.111","1920x1080","1920x937","DiagramNoFeedback","DiagramNoFeedback","DiagramNoFeedback",8,"1",7,"Test","buttonB","continue_button",65626.4964771186,NA,NA,"",NA,"BotoxDiagramNoFeedback",NA
"79",1604176405027,1,"31/10/2020 21:33:25","BLIND",2305701,NA,"complete",NA,"5f9dc268f62942336d200402","computer","Desktop or Laptop","Windows 10","Chrome 86.0.4240.111","1920x1080","1920x937","DiagramNoFeedback","DiagramNoFeedback","DiagramNoFeedback",11,"5",1,"ReadyForNext","advancementZone","continue_button",65626.4964771186,NA,NA,"",NA,"ReadyForNextTextScreen",NA
"8",1604174920069,1,"31/10/2020 21:08:40","BLIND",2305701,NA,"complete",NA,"5f9dc268f62942336d200402","computer","Desktop or Laptop","Windows 10","Chrome 86.0.4240.111","1920x1080","1920x937","DiagramNoFeedback","DiagramNoFeedback","DiagramNoFeedback",1,"1",3,"Diagram","Zone1","continue_button",65626.4964771186,NA,NA,"",NA,"SportenDiagramNoFeedback",NA
"80",1604176472709,1,"31/10/2020 21:34:32","BLIND",2305701,NA,"complete",NA,"5f9dc268f62942336d200402","computer","Desktop or Laptop","Windows 10","Chrome 86.0.4240.111","1920x1080","1920x937","DiagramNoFeedback","DiagramNoFeedback","DiagramNoFeedback",12,"1",1,"Text","advancementZone","continue_button",65626.4964771186,NA,NA,"",NA,"GeldDiagramNoFeedback",NA
"81",1604176474105,1,"31/10/2020 21:34:34","BLIND",2305701,NA,"complete",NA,"5f9dc268f62942336d200402","computer","Desktop or Laptop","Windows 10","Chrome 86.0.4240.111","1920x1080","1920x937","DiagramNoFeedback","DiagramNoFeedback","DiagramNoFeedback",12,"1",2,"JoL1","Three","response_button_text",65626.4964771186,NA,NA,"4",1,"GeldDiagramNoFeedback",NA
"82",1604176541868,1,"31/10/2020 21:35:41","BLIND",2305701,NA,"complete",NA,"5f9dc268f62942336d200402","computer","Desktop or Laptop","Windows 10","Chrome 86.0.4240.111","1920x1080","1920x937","DiagramNoFeedback","DiagramNoFeedback","DiagramNoFeedback",12,"1",3,"Diagram","DiagBox2","response_text_area",65626.4964771186,NA,NA,"1h2vIs",NA,"GeldDiagramNoFeedback",NA
"83",1604176541874,1,"31/10/2020 21:35:41","BLIND",2305701,NA,"complete",NA,"5f9dc268f62942336d200402","computer","Desktop or Laptop","Windows 10","Chrome 86.0.4240.111","1920x1080","1920x937","DiagramNoFeedback","DiagramNoFeedback","DiagramNoFeedback",12,"1",3,"Diagram","DiagBox3","response_text_area",65626.4964771186,NA,NA,"?",NA,"GeldDiagramNoFeedback",NA
"84",1604176541875,1,"31/10/2020 21:35:41","BLIND",2305701,NA,"complete",NA,"5f9dc268f62942336d200402","computer","Desktop or Laptop","Windows 10","Chrome 86.0.4240.111","1920x1080","1920x937","DiagramNoFeedback","DiagramNoFeedback","DiagramNoFeedback",12,"1",3,"Diagram","DiagBox4","response_text_area",65626.4964771186,NA,NA,"DYCTyY",NA,"GeldDiagramNoFeedback",NA
"85",1604176541875,1,"31/10/2020 21:35:41","BLIND",2305701,NA,"complete",NA,"5f9dc268f62942336d200402","computer","Desktop or Laptop","Windows 10","Chrome 86.0.4240.111","1920x1080","1920x937","DiagramNoFeedback","DiagramNoFeedback","DiagramNoFeedback",12,"1",3,"Diagram","DiagBox1","response_text_area",65626.4964771186,NA,NA,"EeQ",NA,"GeldDiagramNoFeedback",NA
"86",1604176541875,1,"31/10/2020 21:35:41","BLIND",2305701,NA,"complete",NA,"5f9dc268f62942336d200402","computer","Desktop or Laptop","Windows 10","Chrome 86.0.4240.111","1920x1080","1920x937","DiagramNoFeedback","DiagramNoFeedback","DiagramNoFeedback",12,"1",3,"Diagram","Zone1","continue_button",65626.4964771186,NA,NA,"",NA,"GeldDiagramNoFeedback",NA
"87",1604176543462,1,"31/10/2020 21:35:43","BLIND",2305701,NA,"complete",NA,"5f9dc268f62942336d200402","computer","Desktop or Laptop","Windows 10","Chrome 86.0.4240.111","1920x1080","1920x937","DiagramNoFeedback","DiagramNoFeedback","DiagramNoFeedback",12,"1",4,"OwnDiagram","Zone1","continue_button",65626.4964771186,NA,NA,"",NA,"GeldDiagramNoFeedback",NA
"88",1604176544365,1,"31/10/2020 21:35:44","BLIND",2305701,NA,"complete",NA,"5f9dc268f62942336d200402","computer","Desktop or Laptop","Windows 10","Chrome 86.0.4240.111","1920x1080","1920x937","DiagramNoFeedback","DiagramNoFeedback","DiagramNoFeedback",12,"1",5,"JoL2","Two","response_button_text",65626.4964771186,NA,NA,"4",1,"GeldDiagramNoFeedback",NA
"89",1604176545777,1,"31/10/2020 21:35:45","BLIND",2305701,NA,"complete",NA,"5f9dc268f62942336d200402","computer","Desktop or Laptop","Windows 10","Chrome 86.0.4240.111","1920x1080","1920x937","DiagramNoFeedback","DiagramNoFeedback","DiagramNoFeedback",12,"1",6,"InstructieToets","advancementZone","continue_button",65626.4964771186,NA,NA,"",NA,"GeldDiagramNoFeedback",NA
"9",1604174924061,1,"31/10/2020 21:08:44","BLIND",2305701,NA,"complete",NA,"5f9dc268f62942336d200402","computer","Desktop or Laptop","Windows 10","Chrome 86.0.4240.111","1920x1080","1920x937","DiagramNoFeedback","DiagramNoFeedback","DiagramNoFeedback",1,"1",4,"OwnDiagram","Zone1","continue_button",65626.4964771186,NA,NA,"",NA,"SportenDiagramNoFeedback",NA
"90",1604176652190,1,"31/10/2020 21:37:32","BLIND",2305701,NA,"complete",NA,"5f9dc268f62942336d200402","computer","Desktop or Laptop","Windows 10","Chrome 86.0.4240.111","1920x1080","1920x937","DiagramNoFeedback","DiagramNoFeedback","DiagramNoFeedback",12,"1",7,"Test","buttonA","response_text_area",65626.4964771186,NA,NA,"9I2cH2o",NA,"GeldDiagramNoFeedback",NA
"91",1604176652195,1,"31/10/2020 21:37:32","BLIND",2305701,NA,"complete",NA,"5f9dc268f62942336d200402","computer","Desktop or Laptop","Windows 10","Chrome 86.0.4240.111","1920x1080","1920x937","DiagramNoFeedback","DiagramNoFeedback","DiagramNoFeedback",12,"1",7,"Test","buttonB","continue_button",65626.4964771186,NA,NA,"",NA,"GeldDiagramNoFeedback",NA
"92",1604176652199,1,"31/10/2020 21:37:32","BLIND",2305701,NA,"complete",NA,"5f9dc268f62942336d200402","computer","Desktop or Laptop","Windows 10","Chrome 86.0.4240.111","1920x1080","1920x937","DiagramNoFeedback","DiagramNoFeedback","",NA,"END TASK",NA,"","","",1917481,NA,NA,"",NA,"",NA
"1",1604235158260,1,"01/11/2020 13:52:38","BLIND",2330287,NA,"complete",NA,"5f9eae9c8e66eb45735ff3b4","computer","Desktop or Laptop","Windows 10","Chrome 86.0.4240.111","1536x864","1536x722","DiagramNoFeedback","DiagramNoFeedback","",NA,"BEGIN TASK",NA,"","","",NA,NA,NA,"",NA,"",NA
"10",1604235279233,1,"01/11/2020 13:54:39","BLIND",2330287,NA,"complete",NA,"5f9eae9c8e66eb45735ff3b4","computer","Desktop or Laptop","Windows 10","Chrome 86.0.4240.111","1536x864","1536x722","DiagramNoFeedback","DiagramNoFeedback","DiagramNoFeedback",1,"1",5,"JoL2","Two","response_button_text",65626.4964771186,NA,NA,"4",1,"SportenDiagramNoFeedback",NA
"11",1604235281245,1,"01/11/2020 13:54:41","BLIND",2330287,NA,"complete",NA,"5f9eae9c8e66eb45735ff3b4","computer","Desktop or Laptop","Windows 10","Chrome 86.0.4240.111","1536x864","1536x722","DiagramNoFeedback","DiagramNoFeedback","DiagramNoFeedback",1,"1",6,"InstructieToets","advancementZone","continue_button",65626.4964771186,NA,NA,"",NA,"SportenDiagramNoFeedback",NA
"12",1604235376668,1,"01/11/2020 13:56:16","BLIND",2330287,NA,"complete",NA,"5f9eae9c8e66eb45735ff3b4","computer","Desktop or Laptop","Windows 10","Chrome 86.0.4240.111","1536x864","1536x722","DiagramNoFeedback","DiagramNoFeedback","DiagramNoFeedback",1,"1",7,"Test","buttonA","response_text_area",65626.4964771186,NA,NA,"h4XSS1IT",NA,"SportenDiagramNoFeedback",NA
"13",1604235376672,1,"01/11/2020 13:56:16","BLIND",2330287,NA,"complete",NA,"5f9eae9c8e66eb45735ff3b4","computer","Desktop or Laptop","Windows 10","Chrome 86.0.4240.111","1536x864","1536x722","DiagramNoFeedback","DiagramNoFeedback","DiagramNoFeedback",1,"1",7,"Test","buttonB","continue_button",65626.4964771186,NA,NA,"",NA,"SportenDiagramNoFeedback",NA
"14",1604235378418,1,"01/11/2020 13:56:18","BLIND",2330287,NA,"complete",NA,"5f9eae9c8e66eb45735ff3b4","computer","Desktop or Laptop","Windows 10","Chrome 86.0.4240.111","1536x864","1536x722","DiagramNoFeedback","DiagramNoFeedback","DiagramNoFeedback",1,"1",8,"Klaar4Experiment","advancementZone","continue_button",65626.4964771186,NA,NA,"",NA,"SportenDiagramNoFeedback",NA
"15",1604235422842,1,"01/11/2020 13:57:02","BLIND",2330287,NA,"complete",NA,"5f9eae9c8e66eb45735ff3b4","computer","Desktop or Laptop","Windows 10","Chrome 86.0.4240.111","1536x864","1536x722","DiagramNoFeedback","DiagramNoFeedback","DiagramNoFeedback",8,"1",1,"Text","advancementZone","continue_button",65626.4964771186,NA,NA,"",NA,"BotoxDiagramNoFeedback",NA
"16",1604235424599,1,"01/11/2020 13:57:04","BLIND",2330287,NA,"complete",NA,"5f9eae9c8e66eb45735ff3b4","computer","Desktop or Laptop","Windows 10","Chrome 86.0.4240.111","1536x864","1536x722","DiagramNoFeedback","DiagramNoFeedback","DiagramNoFeedback",8,"1",2,"JoL1","Three","response_button_text",65626.4964771186,NA,NA,"4",1,"BotoxDiagramNoFeedback",NA
"17",1604235511829,1,"01/11/2020 13:58:31","BLIND",2330287,NA,"complete",NA,"5f9eae9c8e66eb45735ff3b4","computer","Desktop or Laptop","Windows 10","Chrome 86.0.4240.111","1536x864","1536x722","DiagramNoFeedback","DiagramNoFeedback","DiagramNoFeedback",8,"1",3,"Diagram","DiagBox3","response_text_area",65626.4964771186,NA,NA,"WzhJAO98",NA,"BotoxDiagramNoFeedback",NA
"18",1604235511831,1,"01/11/2020 13:58:31","BLIND",2330287,NA,"complete",NA,"5f9eae9c8e66eb45735ff3b4","computer","Desktop or Laptop","Windows 10","Chrome 86.0.4240.111","1536x864","1536x722","DiagramNoFeedback","DiagramNoFeedback","DiagramNoFeedback",8,"1",3,"Diagram","DiagBox4","response_text_area",65626.4964771186,NA,NA,"nfiqVZibNo",NA,"BotoxDiagramNoFeedback",NA
"19",1604235511831,1,"01/11/2020 13:58:31","BLIND",2330287,NA,"complete",NA,"5f9eae9c8e66eb45735ff3b4","computer","Desktop or Laptop","Windows 10","Chrome 86.0.4240.111","1536x864","1536x722","DiagramNoFeedback","DiagramNoFeedback","DiagramNoFeedback",8,"1",3,"Diagram","DiagBox2","response_text_area",65626.4964771186,NA,NA,"xkDK4fC6Do",NA,"BotoxDiagramNoFeedback",NA
"2",1604235195559,1,"01/11/2020 13:53:15","BLIND",2330287,NA,"complete",NA,"5f9eae9c8e66eb45735ff3b4","computer","Desktop or Laptop","Windows 10","Chrome 86.0.4240.111","1536x864","1536x722","DiagramNoFeedback","DiagramNoFeedback","DiagramNoFeedback",1,"1",1,"Text","advancementZone","continue_button",65626.4964771186,NA,NA,"",NA,"SportenDiagramNoFeedback",NA
"20",1604235511831,1,"01/11/2020 13:58:31","BLIND",2330287,NA,"complete",NA,"5f9eae9c8e66eb45735ff3b4","computer","Desktop or Laptop","Windows 10","Chrome 86.0.4240.111","1536x864","1536x722","DiagramNoFeedback","DiagramNoFeedback","DiagramNoFeedback",8,"1",3,"Diagram","DiagBox1","response_text_area",65626.4964771186,NA,NA,"bf30yyuguJ",NA,"BotoxDiagramNoFeedback",NA
"21",1604235511832,1,"01/11/2020 13:58:31","BLIND",2330287,NA,"complete",NA,"5f9eae9c8e66eb45735ff3b4","computer","Desktop or Laptop","Windows 10","Chrome 86.0.4240.111","1536x864","1536x722","DiagramNoFeedback","DiagramNoFeedback","DiagramNoFeedback",8,"1",3,"Diagram","Zone1","continue_button",65626.4964771186,NA,NA,"",NA,"BotoxDiagramNoFeedback",NA
"22",1604235513091,1,"01/11/2020 13:58:33","BLIND",2330287,NA,"complete",NA,"5f9eae9c8e66eb45735ff3b4","computer","Desktop or Laptop","Windows 10","Chrome 86.0.4240.111","1536x864","1536x722","DiagramNoFeedback","DiagramNoFeedback","DiagramNoFeedback",8,"1",4,"OwnDiagram","Zone1","continue_button",65626.4964771186,NA,NA,"",NA,"BotoxDiagramNoFeedback",NA
"23",1604235519763,1,"01/11/2020 13:58:39","BLIND",2330287,NA,"complete",NA,"5f9eae9c8e66eb45735ff3b4","computer","Desktop or Laptop","Windows 10","Chrome 86.0.4240.111","1536x864","1536x722","DiagramNoFeedback","DiagramNoFeedback","DiagramNoFeedback",8,"1",5,"JoL2","One","response_button_text",65626.4964771186,NA,NA,"4",1,"BotoxDiagramNoFeedback",NA
"24",1604235520604,1,"01/11/2020 13:58:40","BLIND",2330287,NA,"complete",NA,"5f9eae9c8e66eb45735ff3b4","computer","Desktop or Laptop","Windows 10","Chrome 86.0.4240.111","1536x864","1536x722","DiagramNoFeedback","DiagramNoFeedback","DiagramNoFeedback",8,"1",6,"InstructieToets","advancementZone","continue_button",65626.4964771186,NA,NA,"",NA,"BotoxDiagramNoFeedback",NA
"25",1604235629250,1,"01/11/2020 14:00:29","BLIND",2330287,NA,"complete",NA,"5f9eae9c8e66eb45735ff3b4","computer","Desktop or Laptop","Windows 10","Chrome 86.0.4240.111","1536x864","1536x722","DiagramNoFeedback","DiagramNoFeedback","DiagramNoFeedback",8,"1",7,"Test","buttonA","response_text_area",65626.4964771186,NA,NA,"1SxNmThG",NA,"BotoxDiagramNoFeedback",NA
"26",1604235629255,1,"01/11/2020 14:00:29","BLIND",2330287,NA,"complete",NA,"5f9eae9c8e66eb45735ff3b4","computer","Desktop or Laptop","Windows 10","Chrome 86.0.4240.111","1536x864","1536x722","DiagramNoFeedback","DiagramNoFeedback","DiagramNoFeedback",8,"1",7,"Test","buttonB","continue_button",65626.4964771186,NA,NA,"",NA,"BotoxDiagramNoFeedback",NA
"27",1604235632421,1,"01/11/2020 14:00:32","BLIND",2330287,NA,"complete",NA,"5f9eae9c8e66eb45735ff3b4","computer","Desktop or Laptop","Windows 10","Chrome 86.0.4240.111","1536x864","1536x722","DiagramNoFeedback","DiagramNoFeedback","DiagramNoFeedback",3,"1",1,"ReadyForNext","advancementZone","continue_button",65626.4964771186,NA,NA,"",NA,"ReadyForNextTextScreen",NA
"28",1604235681301,1,"01/11/2020 14:01:21","BLIND",2330287,NA,"complete",NA,"5f9eae9c8e66eb45735ff3b4","computer","Desktop or Laptop","Windows 10","Chrome 86.0.4240.111","1536x864","1536x722","DiagramNoFeedback","DiagramNoFeedback","DiagramNoFeedback",6,"1",1,"Text","advancementZone","continue_button",65626.4964771186,NA,NA,"",NA,"SuezDiagramNoFeedback",NA
"29",1604235682696,1,"01/11/2020 14:01:22","BLIND",2330287,NA,"complete",NA,"5f9eae9c8e66eb45735ff3b4","computer","Desktop or Laptop","Windows 10","Chrome 86.0.4240.111","1536x864","1536x722","DiagramNoFeedback","DiagramNoFeedback","DiagramNoFeedback",6,"1",2,"JoL1","Three","response_button_text",65626.4964771186,NA,NA,"4",1,"SuezDiagramNoFeedback",NA
"3",1604235199019,1,"01/11/2020 13:53:19","BLIND",2330287,NA,"complete",NA,"5f9eae9c8e66eb45735ff3b4","computer","Desktop or Laptop","Windows 10","Chrome 86.0.4240.111","1536x864","1536x722","DiagramNoFeedback","DiagramNoFeedback","DiagramNoFeedback",1,"1",2,"JoL1","Two","response_button_text",65626.4964771186,NA,NA,"4",1,"SportenDiagramNoFeedback",NA
"30",1604235769691,1,"01/11/2020 14:02:49","BLIND",2330287,NA,"complete",NA,"5f9eae9c8e66eb45735ff3b4","computer","Desktop or Laptop","Windows 10","Chrome 86.0.4240.111","1536x864","1536x722","DiagramNoFeedback","DiagramNoFeedback","DiagramNoFeedback",6,"1",3,"Diagram","DiagBox2","response_text_area",65626.4964771186,NA,NA,"OR",NA,"SuezDiagramNoFeedback",NA
"31",1604235769694,1,"01/11/2020 14:02:49","BLIND",2330287,NA,"complete",NA,"5f9eae9c8e66eb45735ff3b4","computer","Desktop or Laptop","Windows 10","Chrome 86.0.4240.111","1536x864","1536x722","DiagramNoFeedback","DiagramNoFeedback","DiagramNoFeedback",6,"1",3,"Diagram","DiagBox3","response_text_area",65626.4964771186,NA,NA,"cd9XEIu",NA,"SuezDiagramNoFeedback",NA
"32",1604235769694,1,"01/11/2020 14:02:49","BLIND",2330287,NA,"complete",NA,"5f9eae9c8e66eb45735ff3b4","computer","Desktop or Laptop","Windows 10","Chrome 86.0.4240.111","1536x864","1536x722","DiagramNoFeedback","DiagramNoFeedback","DiagramNoFeedback",6,"1",3,"Diagram","DiagBox4","response_text_area",65626.4964771186,NA,NA,"?",NA,"SuezDiagramNoFeedback",NA
"33",1604235769694,1,"01/11/2020 14:02:49","BLIND",2330287,NA,"complete",NA,"5f9eae9c8e66eb45735ff3b4","computer","Desktop or Laptop","Windows 10","Chrome 86.0.4240.111","1536x864","1536x722","DiagramNoFeedback","DiagramNoFeedback","DiagramNoFeedback",6,"1",3,"Diagram","DiagBox1","response_text_area",65626.4964771186,NA,NA,"rTJYzfnsmk",NA,"SuezDiagramNoFeedback",NA
"34",1604235769694,1,"01/11/2020 14:02:49","BLIND",2330287,NA,"complete",NA,"5f9eae9c8e66eb45735ff3b4","computer","Desktop or Laptop","Windows 10","Chrome 86.0.4240.111","1536x864","1536x722","DiagramNoFeedback","DiagramNoFeedback","DiagramNoFeedback",6,"1",3,"Diagram","Zone1","continue_button",65626.4964771186,NA,NA,"",NA,"SuezDiagramNoFeedback",NA
"35",1604235771306,1,"01/11/2020 14:02:51","BLIND",2330287,NA,"complete",NA,"5f9eae9c8e66eb45735ff3b4","computer","Desktop or Laptop","Windows 10","Chrome 86.0.4240.111","1536x864","1536x722","DiagramNoFeedback","DiagramNoFeedback","DiagramNoFeedback",6,"1",4,"OwnDiagram","Zone1","continue_button",65626.4964771186,NA,NA,"",NA,"SuezDiagramNoFeedback",NA
"36",1604235773260,1,"01/11/2020 14:02:53","BLIND",2330287,NA,"complete",NA,"5f9eae9c8e66eb45735ff3b4","computer","Desktop or Laptop","Windows 10","Chrome 86.0.4240.111","1536x864","1536x722","DiagramNoFeedback","DiagramNoFeedback","DiagramNoFeedback",6,"1",5,"JoL2","Three","response_button_text",65626.4964771186,NA,NA,"4",1,"SuezDiagramNoFeedback",NA
"37",1604235774185,1,"01/11/2020 14:02:54","BLIND",2330287,NA,"complete",NA,"5f9eae9c8e66eb45735ff3b4","computer","Desktop or Laptop","Windows 10","Chrome 86.0.4240.111","1536x864","1536x722","DiagramNoFeedback","DiagramNoFeedback","DiagramNoFeedback",6,"1",6,"InstructieToets","advancementZone","continue_button",65626.4964771186,NA,NA,"",NA,"SuezDiagramNoFeedback",NA
"38",1604235849791,1,"01/11/2020 14:04:09","BLIND",2330287,NA,"complete",NA,"5f9eae9c8e66eb45735ff3b4","computer","Desktop or Laptop","Windows 10","Chrome 86.0.4240.111","1536x864","1536x722","DiagramNoFeedback","DiagramNoFeedback","DiagramNoFeedback",6,"1",7,"Test","buttonA","response_text_area",65626.4964771186,NA,NA,"OYBof",NA,"SuezDiagramNoFeedback",NA
"39",1604235849794,1,"01/11/2020 14:04:09","BLIND",2330287,NA,"complete",NA,"5f9eae9c8e66eb45735ff3b4","computer","Desktop or Laptop","Windows 10","Chrome 86.0.4240.111","1536x864","1536x722","DiagramNoFeedback","DiagramNoFeedback","DiagramNoFeedback",6,"1",7,"Test","buttonB","continue_button",65626.4964771186,NA,NA,"",NA,"SuezDiagramNoFeedback",NA
"4",1604235276067,1,"01/11/2020 13:54:36","BLIND",2330287,NA,"complete",NA,"5f9eae9c8e66eb45735ff3b4","computer","Desktop or Laptop","Windows 10","Chrome 86.0.4240.111","1536x864","1536x722","DiagramNoFeedback","DiagramNoFeedback","DiagramNoFeedback",1,"1",3,"Diagram","DiagBox1","response_text_area",65626.4964771186,NA,NA,"0vWGz",NA,"SportenDiagramNoFeedback",NA
"40",1604235850944,1,"01/11/2020 14:04:10","BLIND",2330287,NA,"complete",NA,"5f9eae9c8e66eb45735ff3b4","computer","Desktop or Laptop","Windows 10","Chrome 86.0.4240.111","1536x864","1536x722","DiagramNoFeedback","DiagramNoFeedback","DiagramNoFeedback",5,"2",1,"ReadyForNext","advancementZone","continue_button",65626.4964771186,NA,NA,"",NA,"ReadyForNextTextScreen",NA
"41",1604235974649,1,"01/11/2020 14:06:14","BLIND",2330287,NA,"complete",NA,"5f9eae9c8e66eb45735ff3b4","computer","Desktop or Laptop","Windows 10","Chrome 86.0.4240.111","1536x864","1536x722","DiagramNoFeedback","DiagramNoFeedback","DiagramNoFeedback",10,"1",1,"Text","advancementZone","continue_button",65626.4964771186,NA,NA,"",NA,"MuziekDiagramNoFeedback",NA
"42",1604235975925,1,"01/11/2020 14:06:15","BLIND",2330287,NA,"complete",NA,"5f9eae9c8e66eb45735ff3b4","computer","Desktop or Laptop","Windows 10","Chrome 86.0.4240.111","1536x864","1536x722","DiagramNoFeedback","DiagramNoFeedback","DiagramNoFeedback",10,"1",2,"JoL1","Three","response_button_text",65626.4964771186,NA,NA,"4",1,"MuziekDiagramNoFeedback",NA
"43",1604236059615,1,"01/11/2020 14:07:39","BLIND",2330287,NA,"complete",NA,"5f9eae9c8e66eb45735ff3b4","computer","Desktop or Laptop","Windows 10","Chrome 86.0.4240.111","1536x864","1536x722","DiagramNoFeedback","DiagramNoFeedback","DiagramNoFeedback",10,"1",3,"Diagram","DiagBox1","response_text_area",65626.4964771186,NA,NA,"B4NqMqW",NA,"MuziekDiagramNoFeedback",NA
"44",1604236059620,1,"01/11/2020 14:07:39","BLIND",2330287,NA,"complete",NA,"5f9eae9c8e66eb45735ff3b4","computer","Desktop or Laptop","Windows 10","Chrome 86.0.4240.111","1536x864","1536x722","DiagramNoFeedback","DiagramNoFeedback","DiagramNoFeedback",10,"1",3,"Diagram","DiagBox2","response_text_area",65626.4964771186,NA,NA,"wbEnlq",NA,"MuziekDiagramNoFeedback",NA
"45",1604236059620,1,"01/11/2020 14:07:39","BLIND",2330287,NA,"complete",NA,"5f9eae9c8e66eb45735ff3b4","computer","Desktop or Laptop","Windows 10","Chrome 86.0.4240.111","1536x864","1536x722","DiagramNoFeedback","DiagramNoFeedback","DiagramNoFeedback",10,"1",3,"Diagram","DiagBox3","response_text_area",65626.4964771186,NA,NA,"cgsLCOkj",NA,"MuziekDiagramNoFeedback",NA
"46",1604236059620,1,"01/11/2020 14:07:39","BLIND",2330287,NA,"complete",NA,"5f9eae9c8e66eb45735ff3b4","computer","Desktop or Laptop","Windows 10","Chrome 86.0.4240.111","1536x864","1536x722","DiagramNoFeedback","DiagramNoFeedback","DiagramNoFeedback",10,"1",3,"Diagram","DiagBox4","response_text_area",65626.4964771186,NA,NA,"u8h9mQ",NA,"MuziekDiagramNoFeedback",NA
"47",1604236059620,1,"01/11/2020 14:07:39","BLIND",2330287,NA,"complete",NA,"5f9eae9c8e66eb45735ff3b4","computer","Desktop or Laptop","Windows 10","Chrome 86.0.4240.111","1536x864","1536x722","DiagramNoFeedback","DiagramNoFeedback","DiagramNoFeedback",10,"1",3,"Diagram","Zone1","continue_button",65626.4964771186,NA,NA,"",NA,"MuziekDiagramNoFeedback",NA
"48",1604236063023,1,"01/11/2020 14:07:43","BLIND",2330287,NA,"complete",NA,"5f9eae9c8e66eb45735ff3b4","computer","Desktop or Laptop","Windows 10","Chrome 86.0.4240.111","1536x864","1536x722","DiagramNoFeedback","DiagramNoFeedback","DiagramNoFeedback",10,"1",4,"OwnDiagram","Zone1","continue_button",65626.4964771186,NA,NA,"",NA,"MuziekDiagramNoFeedback",NA
"49",1604236063966,1,"01/11/2020 14:07:43","BLIND",2330287,NA,"complete",NA,"5f9eae9c8e66eb45735ff3b4","computer","Desktop or Laptop","Windows 10","Chrome 86.0.4240.111","1536x864","1536x722","DiagramNoFeedback","DiagramNoFeedback","DiagramNoFeedback",10,"1",5,"JoL2","Three","response_button_text",65626.4964771186,NA,NA,"4",1,"MuziekDiagramNoFeedback",NA
"5",1604235276071,1,"01/11/2020 13:54:36","BLIND",2330287,NA,"complete",NA,"5f9eae9c8e66eb45735ff3b4","computer","Desktop or Laptop","Windows 10","Chrome 86.0.4240.111","1536x864","1536x722","DiagramNoFeedback","DiagramNoFeedback","DiagramNoFeedback",1,"1",3,"Diagram","DiagBox2","response_text_area",65626.4964771186,NA,NA,"fL",NA,"SportenDiagramNoFeedback",NA
"50",1604236064531,1,"01/11/2020 14:07:44","BLIND",2330287,NA,"complete",NA,"5f9eae9c8e66eb45735ff3b4","computer","Desktop or Laptop","Windows 10","Chrome 86.0.4240.111","1536x864","1536x722","DiagramNoFeedback","DiagramNoFeedback","DiagramNoFeedback",10,"1",6,"InstructieToets","advancementZone","continue_button",65626.4964771186,NA,NA,"",NA,"MuziekDiagramNoFeedback",NA
"51",1604236215751,1,"01/11/2020 14:10:15","BLIND",2330287,NA,"complete",NA,"5f9eae9c8e66eb45735ff3b4","computer","Desktop or Laptop","Windows 10","Chrome 86.0.4240.111","1536x864","1536x722","DiagramNoFeedback","DiagramNoFeedback","DiagramNoFeedback",10,"1",7,"Test","buttonA","response_text_area",65626.4964771186,NA,NA,"nvGi",NA,"MuziekDiagramNoFeedback",NA
"52",1604236215761,1,"01/11/2020 14:10:15","BLIND",2330287,NA,"complete",NA,"5f9eae9c8e66eb45735ff3b4","computer","Desktop or Laptop","Windows 10","Chrome 86.0.4240.111","1536x864","1536x722","DiagramNoFeedback","DiagramNoFeedback","DiagramNoFeedback",10,"1",7,"Test","buttonB","continue_button",65626.4964771186,NA,NA,"",NA,"MuziekDiagramNoFeedback",NA
"53",1604236217069,1,"01/11/2020 14:10:17","BLIND",2330287,NA,"complete",NA,"5f9eae9c8e66eb45735ff3b4","computer","Desktop or Laptop","Windows 10","Chrome 86.0.4240.111","1536x864","1536x722","DiagramNoFeedback","DiagramNoFeedback","DiagramNoFeedback",7,"3",1,"ReadyForNext","advancementZone","continue_button",65626.4964771186,NA,NA,"",NA,"ReadyForNextTextScreen",NA
"54",1604236294497,1,"01/11/2020 14:11:34","BLIND",2330287,NA,"complete",NA,"5f9eae9c8e66eb45735ff3b4","computer","Desktop or Laptop","Windows 10","Chrome 86.0.4240.111","1536x864","1536x722","DiagramNoFeedback","DiagramNoFeedback","DiagramNoFeedback",4,"1",1,"Text","advancementZone","continue_button",65626.4964771186,NA,NA,"",NA,"BetonDiagramNoFeedback",NA
"55",1604236296225,1,"01/11/2020 14:11:36","BLIND",2330287,NA,"complete",NA,"5f9eae9c8e66eb45735ff3b4","computer","Desktop or Laptop","Windows 10","Chrome 86.0.4240.111","1536x864","1536x722","DiagramNoFeedback","DiagramNoFeedback","DiagramNoFeedback",4,"1",2,"JoL1","Four","response_button_text",65626.4964771186,NA,NA,"4",1,"BetonDiagramNoFeedback",NA
"56",1604236364493,1,"01/11/2020 14:12:44","BLIND",2330287,NA,"complete",NA,"5f9eae9c8e66eb45735ff3b4","computer","Desktop or Laptop","Windows 10","Chrome 86.0.4240.111","1536x864","1536x722","DiagramNoFeedback","DiagramNoFeedback","DiagramNoFeedback",4,"1",3,"Diagram","DiagBox2","response_text_area",65626.4964771186,NA,NA,"5ENXE",NA,"BetonDiagramNoFeedback",NA
"57",1604236364495,1,"01/11/2020 14:12:44","BLIND",2330287,NA,"complete",NA,"5f9eae9c8e66eb45735ff3b4","computer","Desktop or Laptop","Windows 10","Chrome 86.0.4240.111","1536x864","1536x722","DiagramNoFeedback","DiagramNoFeedback","DiagramNoFeedback",4,"1",3,"Diagram","DiagBox3","response_text_area",65626.4964771186,NA,NA,"dh1Ecr",NA,"BetonDiagramNoFeedback",NA
"58",1604236364495,1,"01/11/2020 14:12:44","BLIND",2330287,NA,"complete",NA,"5f9eae9c8e66eb45735ff3b4","computer","Desktop or Laptop","Windows 10","Chrome 86.0.4240.111","1536x864","1536x722","DiagramNoFeedback","DiagramNoFeedback","DiagramNoFeedback",4,"1",3,"Diagram","DiagBox4","response_text_area",65626.4964771186,NA,NA,"rUU",NA,"BetonDiagramNoFeedback",NA
"59",1604236364496,1,"01/11/2020 14:12:44","BLIND",2330287,NA,"complete",NA,"5f9eae9c8e66eb45735ff3b4","computer","Desktop or Laptop","Windows 10","Chrome 86.0.4240.111","1536x864","1536x722","DiagramNoFeedback","DiagramNoFeedback","DiagramNoFeedback",4,"1",3,"Diagram","DiagBox1","response_text_area",65626.4964771186,NA,NA,"4Bg31iJutn",NA,"BetonDiagramNoFeedback",NA
"6",1604235276071,1,"01/11/2020 13:54:36","BLIND",2330287,NA,"complete",NA,"5f9eae9c8e66eb45735ff3b4","computer","Desktop or Laptop","Windows 10","Chrome 86.0.4240.111","1536x864","1536x722","DiagramNoFeedback","DiagramNoFeedback","DiagramNoFeedback",1,"1",3,"Diagram","DiagBox3","response_text_area",65626.4964771186,NA,NA,"jwgbEPn7WC",NA,"SportenDiagramNoFeedback",NA
"60",1604236364496,1,"01/11/2020 14:12:44","BLIND",2330287,NA,"complete",NA,"5f9eae9c8e66eb45735ff3b4","computer","Desktop or Laptop","Windows 10","Chrome 86.0.4240.111","1536x864","1536x722","DiagramNoFeedback","DiagramNoFeedback","DiagramNoFeedback",4,"1",3,"Diagram","Zone1","continue_button",65626.4964771186,NA,NA,"",NA,"BetonDiagramNoFeedback",NA
"61",1604236365872,1,"01/11/2020 14:12:45","BLIND",2330287,NA,"complete",NA,"5f9eae9c8e66eb45735ff3b4","computer","Desktop or Laptop","Windows 10","Chrome 86.0.4240.111","1536x864","1536x722","DiagramNoFeedback","DiagramNoFeedback","DiagramNoFeedback",4,"1",4,"OwnDiagram","Zone1","continue_button",65626.4964771186,NA,NA,"",NA,"BetonDiagramNoFeedback",NA
"62",1604236366915,1,"01/11/2020 14:12:46","BLIND",2330287,NA,"complete",NA,"5f9eae9c8e66eb45735ff3b4","computer","Desktop or Laptop","Windows 10","Chrome 86.0.4240.111","1536x864","1536x722","DiagramNoFeedback","DiagramNoFeedback","DiagramNoFeedback",4,"1",5,"JoL2","Four","response_button_text",65626.4964771186,NA,NA,"4",1,"BetonDiagramNoFeedback",NA
"63",1604236368144,1,"01/11/2020 14:12:48","BLIND",2330287,NA,"complete",NA,"5f9eae9c8e66eb45735ff3b4","computer","Desktop or Laptop","Windows 10","Chrome 86.0.4240.111","1536x864","1536x722","DiagramNoFeedback","DiagramNoFeedback","DiagramNoFeedback",4,"1",6,"InstructieToets","advancementZone","continue_button",65626.4964771186,NA,NA,"",NA,"BetonDiagramNoFeedback",NA
"64",1604236448254,1,"01/11/2020 14:14:08","BLIND",2330287,NA,"complete",NA,"5f9eae9c8e66eb45735ff3b4","computer","Desktop or Laptop","Windows 10","Chrome 86.0.4240.111","1536x864","1536x722","DiagramNoFeedback","DiagramNoFeedback","DiagramNoFeedback",4,"1",7,"Test","buttonA","response_text_area",65626.4964771186,NA,NA,"E5fi1Nn2",NA,"BetonDiagramNoFeedback",NA
"65",1604236448258,1,"01/11/2020 14:14:08","BLIND",2330287,NA,"complete",NA,"5f9eae9c8e66eb45735ff3b4","computer","Desktop or Laptop","Windows 10","Chrome 86.0.4240.111","1536x864","1536x722","DiagramNoFeedback","DiagramNoFeedback","DiagramNoFeedback",4,"1",7,"Test","buttonB","continue_button",65626.4964771186,NA,NA,"",NA,"BetonDiagramNoFeedback",NA
"66",1604236451540,1,"01/11/2020 14:14:11","BLIND",2330287,NA,"complete",NA,"5f9eae9c8e66eb45735ff3b4","computer","Desktop or Laptop","Windows 10","Chrome 86.0.4240.111","1536x864","1536x722","DiagramNoFeedback","DiagramNoFeedback","DiagramNoFeedback",9,"4",1,"ReadyForNext","advancementZone","continue_button",65626.4964771186,NA,NA,"",NA,"ReadyForNextTextScreen",NA
"67",1604236554295,1,"01/11/2020 14:15:54","BLIND",2330287,NA,"complete",NA,"5f9eae9c8e66eb45735ff3b4","computer","Desktop or Laptop","Windows 10","Chrome 86.0.4240.111","1536x864","1536x722","DiagramNoFeedback","DiagramNoFeedback","DiagramNoFeedback",12,"1",1,"Text","advancementZone","continue_button",65626.4964771186,NA,NA,"",NA,"GeldDiagramNoFeedback",NA
"68",1604236555842,1,"01/11/2020 14:15:55","BLIND",2330287,NA,"complete",NA,"5f9eae9c8e66eb45735ff3b4","computer","Desktop or Laptop","Windows 10","Chrome 86.0.4240.111","1536x864","1536x722","DiagramNoFeedback","DiagramNoFeedback","DiagramNoFeedback",12,"1",2,"JoL1","Three","response_button_text",65626.4964771186,NA,NA,"4",1,"GeldDiagramNoFeedback",NA
"69",1604236661237,1,"01/11/2020 14:17:41","BLIND",2330287,NA,"complete",NA,"5f9eae9c8e66eb45735ff3b4","computer","Desktop or Laptop","Windows 10","Chrome 86.0.4240.111","1536x864","1536x722","DiagramNoFeedback","DiagramNoFeedback","DiagramNoFeedback",12,"1",3,"Diagram","DiagBox2","response_text_area",65626.4964771186,NA,NA,"pLC",NA,"GeldDiagramNoFeedback",NA
"7",1604235276071,1,"01/11/2020 13:54:36","BLIND",2330287,NA,"complete",NA,"5f9eae9c8e66eb45735ff3b4","computer","Desktop or Laptop","Windows 10","Chrome 86.0.4240.111","1536x864","1536x722","DiagramNoFeedback","DiagramNoFeedback","DiagramNoFeedback",1,"1",3,"Diagram","DiagBox4","response_text_area",65626.4964771186,NA,NA,"7xpQ6O2Zz",NA,"SportenDiagramNoFeedback",NA
"70",1604236661242,1,"01/11/2020 14:17:41","BLIND",2330287,NA,"complete",NA,"5f9eae9c8e66eb45735ff3b4","computer","Desktop or Laptop","Windows 10","Chrome 86.0.4240.111","1536x864","1536x722","DiagramNoFeedback","DiagramNoFeedback","DiagramNoFeedback",12,"1",3,"Diagram","DiagBox3","response_text_area",65626.4964771186,NA,NA,"Eocl",NA,"GeldDiagramNoFeedback",NA
"71",1604236661242,1,"01/11/2020 14:17:41","BLIND",2330287,NA,"complete",NA,"5f9eae9c8e66eb45735ff3b4","computer","Desktop or Laptop","Windows 10","Chrome 86.0.4240.111","1536x864","1536x722","DiagramNoFeedback","DiagramNoFeedback","DiagramNoFeedback",12,"1",3,"Diagram","DiagBox4","response_text_area",65626.4964771186,NA,NA,"nU",NA,"GeldDiagramNoFeedback",NA
"72",1604236661242,1,"01/11/2020 14:17:41","BLIND",2330287,NA,"complete",NA,"5f9eae9c8e66eb45735ff3b4","computer","Desktop or Laptop","Windows 10","Chrome 86.0.4240.111","1536x864","1536x722","DiagramNoFeedback","DiagramNoFeedback","DiagramNoFeedback",12,"1",3,"Diagram","DiagBox1","response_text_area",65626.4964771186,NA,NA,"0RdQZLh",NA,"GeldDiagramNoFeedback",NA
"73",1604236661242,1,"01/11/2020 14:17:41","BLIND",2330287,NA,"complete",NA,"5f9eae9c8e66eb45735ff3b4","computer","Desktop or Laptop","Windows 10","Chrome 86.0.4240.111","1536x864","1536x722","DiagramNoFeedback","DiagramNoFeedback","DiagramNoFeedback",12,"1",3,"Diagram","Zone1","continue_button",65626.4964771186,NA,NA,"",NA,"GeldDiagramNoFeedback",NA
"74",1604236662284,1,"01/11/2020 14:17:42","BLIND",2330287,NA,"complete",NA,"5f9eae9c8e66eb45735ff3b4","computer","Desktop or Laptop","Windows 10","Chrome 86.0.4240.111","1536x864","1536x722","DiagramNoFeedback","DiagramNoFeedback","DiagramNoFeedback",12,"1",4,"OwnDiagram","Zone1","continue_button",65626.4964771186,NA,NA,"",NA,"GeldDiagramNoFeedback",NA
"75",1604236664465,1,"01/11/2020 14:17:44","BLIND",2330287,NA,"complete",NA,"5f9eae9c8e66eb45735ff3b4","computer","Desktop or Laptop","Windows 10","Chrome 86.0.4240.111","1536x864","1536x722","DiagramNoFeedback","DiagramNoFeedback","DiagramNoFeedback",12,"1",5,"JoL2","Two","response_button_text",65626.4964771186,NA,NA,"4",1,"GeldDiagramNoFeedback",NA
"76",1604236665428,1,"01/11/2020 14:17:45","BLIND",2330287,NA,"complete",NA,"5f9eae9c8e66eb45735ff3b4","computer","Desktop or Laptop","Windows 10","Chrome 86.0.4240.111","1536x864","1536x722","DiagramNoFeedback","DiagramNoFeedback","DiagramNoFeedback",12,"1",6,"InstructieToets","advancementZone","continue_button",65626.4964771186,NA,NA,"",NA,"GeldDiagramNoFeedback",NA
"77",1604236771778,1,"01/11/2020 14:19:31","BLIND",2330287,NA,"complete",NA,"5f9eae9c8e66eb45735ff3b4","computer","Desktop or Laptop","Windows 10","Chrome 86.0.4240.111","1536x864","1536x722","DiagramNoFeedback","DiagramNoFeedback","DiagramNoFeedback",12,"1",7,"Test","buttonA","response_text_area",65626.4964771186,NA,NA,"FbGiVI5vtX",NA,"GeldDiagramNoFeedback",NA
"78",1604236771782,1,"01/11/2020 14:19:31","BLIND",2330287,NA,"complete",NA,"5f9eae9c8e66eb45735ff3b4","computer","Desktop or Laptop","Windows 10","Chrome 86.0.4240.111","1536x864","1536x722","DiagramNoFeedback","DiagramNoFeedback","DiagramNoFeedback",12,"1",7,"Test","buttonB","continue_button",65626.4964771186,NA,NA,"",NA,"GeldDiagramNoFeedback",NA
"79",1604236772581,1,"01/11/2020 14:19:32","BLIND",2330287,NA,"complete",NA,"5f9eae9c8e66eb45735ff3b4","computer","Desktop or Laptop","Windows 10","Chrome 86.0.4240.111","1536x864","1536x722","DiagramNoFeedback","DiagramNoFeedback","DiagramNoFeedback",11,"5",1,"ReadyForNext","advancementZone","continue_button",65626.4964771186,NA,NA,"",NA,"ReadyForNextTextScreen",NA
"8",1604235276071,1,"01/11/2020 13:54:36","BLIND",2330287,NA,"complete",NA,"5f9eae9c8e66eb45735ff3b4","computer","Desktop or Laptop","Windows 10","Chrome 86.0.4240.111","1536x864","1536x722","DiagramNoFeedback","DiagramNoFeedback","DiagramNoFeedback",1,"1",3,"Diagram","Zone1","continue_button",65626.4964771186,NA,NA,"",NA,"SportenDiagramNoFeedback",NA
"80",1604236853292,1,"01/11/2020 14:20:53","BLIND",2330287,NA,"complete",NA,"5f9eae9c8e66eb45735ff3b4","computer","Desktop or Laptop","Windows 10","Chrome 86.0.4240.111","1536x864","1536x722","DiagramNoFeedback","DiagramNoFeedback","DiagramNoFeedback",2,"1",1,"Text","advancementZone","continue_button",65626.4964771186,NA,NA,"",NA,"MetroDiagramNoFeedback",NA
"81",1604236855400,1,"01/11/2020 14:20:55","BLIND",2330287,NA,"complete",NA,"5f9eae9c8e66eb45735ff3b4","computer","Desktop or Laptop","Windows 10","Chrome 86.0.4240.111","1536x864","1536x722","DiagramNoFeedback","DiagramNoFeedback","DiagramNoFeedback",2,"1",2,"JoL1","Three","response_button_text",65626.4964771186,NA,NA,"4",1,"MetroDiagramNoFeedback",NA
"82",1604236908810,1,"01/11/2020 14:21:48","BLIND",2330287,NA,"complete",NA,"5f9eae9c8e66eb45735ff3b4","computer","Desktop or Laptop","Windows 10","Chrome 86.0.4240.111","1536x864","1536x722","DiagramNoFeedback","DiagramNoFeedback","DiagramNoFeedback",2,"1",3,"Diagram","DiagBox1","response_text_area",65626.4964771186,NA,NA,"cfuh0C4l",NA,"MetroDiagramNoFeedback",NA
"83",1604236908815,1,"01/11/2020 14:21:48","BLIND",2330287,NA,"complete",NA,"5f9eae9c8e66eb45735ff3b4","computer","Desktop or Laptop","Windows 10","Chrome 86.0.4240.111","1536x864","1536x722","DiagramNoFeedback","DiagramNoFeedback","DiagramNoFeedback",2,"1",3,"Diagram","DiagBox3","response_text_area",65626.4964771186,NA,NA,"gX2RqL5",NA,"MetroDiagramNoFeedback",NA
"84",1604236908815,1,"01/11/2020 14:21:48","BLIND",2330287,NA,"complete",NA,"5f9eae9c8e66eb45735ff3b4","computer","Desktop or Laptop","Windows 10","Chrome 86.0.4240.111","1536x864","1536x722","DiagramNoFeedback","DiagramNoFeedback","DiagramNoFeedback",2,"1",3,"Diagram","DiagBox4","response_text_area",65626.4964771186,NA,NA,"LgiHIPyZ",NA,"MetroDiagramNoFeedback",NA
"85",1604236908815,1,"01/11/2020 14:21:48","BLIND",2330287,NA,"complete",NA,"5f9eae9c8e66eb45735ff3b4","computer","Desktop or Laptop","Windows 10","Chrome 86.0.4240.111","1536x864","1536x722","DiagramNoFeedback","DiagramNoFeedback","DiagramNoFeedback",2,"1",3,"Diagram","DiagBox2","response_text_area",65626.4964771186,NA,NA,"GWkC",NA,"MetroDiagramNoFeedback",NA
"86",1604236908816,1,"01/11/2020 14:21:48","BLIND",2330287,NA,"complete",NA,"5f9eae9c8e66eb45735ff3b4","computer","Desktop or Laptop","Windows 10","Chrome 86.0.4240.111","1536x864","1536x722","DiagramNoFeedback","DiagramNoFeedback","DiagramNoFeedback",2,"1",3,"Diagram","Zone1","continue_button",65626.4964771186,NA,NA,"",NA,"MetroDiagramNoFeedback",NA
"87",1604236910234,1,"01/11/2020 14:21:50","BLIND",2330287,NA,"complete",NA,"5f9eae9c8e66eb45735ff3b4","computer","Desktop or Laptop","Windows 10","Chrome 86.0.4240.111","1536x864","1536x722","DiagramNoFeedback","DiagramNoFeedback","DiagramNoFeedback",2,"1",4,"OwnDiagram","Zone1","continue_button",65626.4964771186,NA,NA,"",NA,"MetroDiagramNoFeedback",NA
"88",1604236911410,1,"01/11/2020 14:21:51","BLIND",2330287,NA,"complete",NA,"5f9eae9c8e66eb45735ff3b4","computer","Desktop or Laptop","Windows 10","Chrome 86.0.4240.111","1536x864","1536x722","DiagramNoFeedback","DiagramNoFeedback","DiagramNoFeedback",2,"1",5,"JoL2","Two","response_button_text",65626.4964771186,NA,NA,"4",1,"MetroDiagramNoFeedback",NA
"89",1604236912186,1,"01/11/2020 14:21:52","BLIND",2330287,NA,"complete",NA,"5f9eae9c8e66eb45735ff3b4","computer","Desktop or Laptop","Windows 10","Chrome 86.0.4240.111","1536x864","1536x722","DiagramNoFeedback","DiagramNoFeedback","DiagramNoFeedback",2,"1",6,"InstructieToets","advancementZone","continue_button",65626.4964771186,NA,NA,"",NA,"MetroDiagramNoFeedback",NA
"9",1604235277625,1,"01/11/2020 13:54:37","BLIND",2330287,NA,"complete",NA,"5f9eae9c8e66eb45735ff3b4","computer","Desktop or Laptop","Windows 10","Chrome 86.0.4240.111","1536x864","1536x722","DiagramNoFeedback","DiagramNoFeedback","DiagramNoFeedback",1,"1",4,"OwnDiagram","Zone1","continue_button",65626.4964771186,NA,NA,"",NA,"SportenDiagramNoFeedback",NA
"90",1604237001831,1,"01/11/2020 14:23:21","BLIND",2330287,NA,"complete",NA,"5f9eae9c8e66eb45735ff3b4","computer","Desktop or Laptop","Windows 10","Chrome 86.0.4240.111","1536x864","1536x722","DiagramNoFeedback","DiagramNoFeedback","DiagramNoFeedback",2,"1",7,"Test","buttonA","response_text_area",65626.4964771186,NA,NA,"EDlAcTumF",NA,"MetroDiagramNoFeedback",NA
"91",1604237001835,1,"01/11/2020 14:23:21","BLIND",2330287,NA,"complete",NA,"5f9eae9c8e66eb45735ff3b4","computer","Desktop or Laptop","Windows 10","Chrome 86.0.4240.111","1536x864","1536x722","DiagramNoFeedback","DiagramNoFeedback","DiagramNoFeedback",2,"1",7,"Test","buttonB","continue_button",65626.4964771186,NA,NA,"",NA,"MetroDiagramNoFeedback",NA
"92",1604237001842,1,"01/11/2020 14:23:21","BLIND",2330287,NA,"complete",NA,"5f9eae9c8e66eb45735ff3b4","computer","Desktop or Laptop","Windows 10","Chrome 86.0.4240.111","1536x864","1536x722","DiagramNoFeedback","DiagramNoFeedback","",NA,"END TASK",NA,"","","",1843582,NA,NA,"",NA,"",NA
"1",1604146288501,1,"31/10/2020 13:11:28","BLIND",2407233,NA,"complete",NA,"5f9d538f2225542556b705aa","computer","Desktop or Laptop","Mac OS 10.15.7","Chrome 86.0.4240.111","1440x900","1440x789","DiagramNoFeedback","DiagramNoFeedback","",NA,"BEGIN TASK",NA,"","","",NA,NA,NA,"",NA,"",NA
