"Event_Index","Local_Timestamp","Local_Timezone","Local_Date","Participant_Public_ID","Participant_Private_ID","Participant_Starting_Group","Participant_Status","Participant_Completion_Code","Participant_External_Session_ID","Participant_Device_Type","Participant_Device","Participant_OS","Participant_Browser","Participant_Monitor_Size","Participant_Viewport_Size","randomiser_81rl","Spreadsheet","Spreadsheet_Name","Spreadsheet_Row","Trial_Number","Screen_Number","Screen_Name","Zone_Name","Zone_Type","Reaction_Time","Reaction_Onset","Response_Type","Response","Attempt","display","Diagram_Box_Require_Response"
"1",1601718121685,2,"03/10/2020 11:42:01","BLIND",6218947,NA,"complete",NA,"5f784135b1c1383c43376c63","computer","Desktop or Laptop","Mac OS 10.14.6","Safari 14.0","1440x900","1440x789","PictureMapping","PictureMapping","",NA,"BEGIN TASK",NA,"","","",NA,NA,NA,"",NA,"",NA
"10",1601718474142,2,"03/10/2020 11:47:54","BLIND",6218947,NA,"complete",NA,"5f784135b1c1383c43376c63","computer","Desktop or Laptop","Mac OS 10.14.6","Safari 14.0","1440x900","1440x789","PictureMapping","PictureMapping","PictureMapping",7,"1",7,"Test","buttonB","continue_button",40423.9,NA,NA,"",NA,"BotoxPictureMapping",NA
"11",1601718477972,2,"03/10/2020 11:47:57","BLIND",6218947,NA,"complete",NA,"5f784135b1c1383c43376c63","computer","Desktop or Laptop","Mac OS 10.14.6","Safari 14.0","1440x900","1440x789","PictureMapping","PictureMapping","PictureMapping",2,"1",1,"Screen 1","advancementZone","continue_button",40423.9,NA,NA,"",NA,"ReadyForNextTextScreen",NA
"12",1601718580518,2,"03/10/2020 11:49:40","BLIND",6218947,NA,"complete",NA,"5f784135b1c1383c43376c63","computer","Desktop or Laptop","Mac OS 10.14.6","Safari 14.0","1440x900","1440x789","PictureMapping","PictureMapping","PictureMapping",3,"1",1,"Text","advancementZone","continue_button",40423.9,NA,NA,"",NA,"BetonPictureMapping",NA
"13",1601718581835,2,"03/10/2020 11:49:41","BLIND",6218947,NA,"complete",NA,"5f784135b1c1383c43376c63","computer","Desktop or Laptop","Mac OS 10.14.6","Safari 14.0","1440x900","1440x789","PictureMapping","PictureMapping","PictureMapping",3,"1",2,"JoL1","Four","response_button_text",40423.9,NA,NA,"2",1,"BetonPictureMapping",NA
"14",1601718582776,2,"03/10/2020 11:49:42","BLIND",6218947,NA,"complete",NA,"5f784135b1c1383c43376c63","computer","Desktop or Laptop","Mac OS 10.14.6","Safari 14.0","1440x900","1440x789","PictureMapping","PictureMapping","PictureMapping",3,"1",3,"IntroPictureMapping","advancementZone","continue_keyboard",40423.9,NA,NA,"",NA,"BetonPictureMapping",NA
"15",1601718609889,2,"03/10/2020 11:50:09","BLIND",6218947,NA,"complete",NA,"5f784135b1c1383c43376c63","computer","Desktop or Laptop","Mac OS 10.14.6","Safari 14.0","1440x900","1440x789","PictureMapping","PictureMapping","PictureMapping",3,"1",4,"PictureMapping","advancementZone","response_text_entry",40423.9,NA,NA,"5",NA,"BetonPictureMapping",NA
"16",1601718609891,2,"03/10/2020 11:50:09","BLIND",6218947,NA,"complete",NA,"5f784135b1c1383c43376c63","computer","Desktop or Laptop","Mac OS 10.14.6","Safari 14.0","1440x900","1440x789","PictureMapping","PictureMapping","PictureMapping",3,"1",4,"PictureMapping","Zone1","continue_button",40423.9,NA,NA,"",NA,"BetonPictureMapping",NA
"17",1601718611708,2,"03/10/2020 11:50:11","BLIND",6218947,NA,"complete",NA,"5f784135b1c1383c43376c63","computer","Desktop or Laptop","Mac OS 10.14.6","Safari 14.0","1440x900","1440x789","PictureMapping","PictureMapping","PictureMapping",3,"1",5,"JoL2","Four","response_button_text",40423.9,NA,NA,"2",1,"BetonPictureMapping",NA
"18",1601718616308,2,"03/10/2020 11:50:16","BLIND",6218947,NA,"complete",NA,"5f784135b1c1383c43376c63","computer","Desktop or Laptop","Mac OS 10.14.6","Safari 14.0","1440x900","1440x789","PictureMapping","PictureMapping","PictureMapping",3,"1",6,"InstructieToets","advancementZone","continue_button",40423.9,NA,NA,"",NA,"BetonPictureMapping",NA
"19",1601718748199,2,"03/10/2020 11:52:28","BLIND",6218947,NA,"complete",NA,"5f784135b1c1383c43376c63","computer","Desktop or Laptop","Mac OS 10.14.6","Safari 14.0","1440x900","1440x789","PictureMapping","PictureMapping","PictureMapping",3,"1",7,"Test","buttonA","response_text_area",40423.9,NA,NA,"jsdnfAVdU",NA,"BetonPictureMapping",NA
"2",1601718233969,2,"03/10/2020 11:43:53","BLIND",6218947,NA,"complete",NA,"5f784135b1c1383c43376c63","computer","Desktop or Laptop","Mac OS 10.14.6","Safari 14.0","1440x900","1440x789","PictureMapping","PictureMapping","PictureMapping",7,"1",1,"Text","advancementZone","continue_button",40423.9,NA,NA,"",NA,"BotoxPictureMapping",NA
"20",1601718748201,2,"03/10/2020 11:52:28","BLIND",6218947,NA,"complete",NA,"5f784135b1c1383c43376c63","computer","Desktop or Laptop","Mac OS 10.14.6","Safari 14.0","1440x900","1440x789","PictureMapping","PictureMapping","PictureMapping",3,"1",7,"Test","buttonB","continue_button",40423.9,NA,NA,"",NA,"BetonPictureMapping",NA
"21",1601718749814,2,"03/10/2020 11:52:29","BLIND",6218947,NA,"complete",NA,"5f784135b1c1383c43376c63","computer","Desktop or Laptop","Mac OS 10.14.6","Safari 14.0","1440x900","1440x789","PictureMapping","PictureMapping","PictureMapping",4,"2",1,"Screen 1","advancementZone","continue_button",40423.9,NA,NA,"",NA,"ReadyForNextTextScreen",NA
"22",1601718884050,2,"03/10/2020 11:54:44","BLIND",6218947,NA,"complete",NA,"5f784135b1c1383c43376c63","computer","Desktop or Laptop","Mac OS 10.14.6","Safari 14.0","1440x900","1440x789","PictureMapping","PictureMapping","PictureMapping",1,"1",1,"Text","advancementZone","continue_button",40423.9,NA,NA,"",NA,"MetroPictureMapping",NA
"23",1601718884925,2,"03/10/2020 11:54:44","BLIND",6218947,NA,"complete",NA,"5f784135b1c1383c43376c63","computer","Desktop or Laptop","Mac OS 10.14.6","Safari 14.0","1440x900","1440x789","PictureMapping","PictureMapping","PictureMapping",1,"1",2,"JoL1","Four","response_button_text",40423.9,NA,NA,"2",1,"MetroPictureMapping",NA
"24",1601718885973,2,"03/10/2020 11:54:45","BLIND",6218947,NA,"complete",NA,"5f784135b1c1383c43376c63","computer","Desktop or Laptop","Mac OS 10.14.6","Safari 14.0","1440x900","1440x789","PictureMapping","PictureMapping","PictureMapping",1,"1",3,"IntroPictureMapping","advancementZone","continue_keyboard",40423.9,NA,NA,"",NA,"MetroPictureMapping",NA
"25",1601718920371,2,"03/10/2020 11:55:20","BLIND",6218947,NA,"complete",NA,"5f784135b1c1383c43376c63","computer","Desktop or Laptop","Mac OS 10.14.6","Safari 14.0","1440x900","1440x789","PictureMapping","PictureMapping","PictureMapping",1,"1",4,"PictureMapping","advancementZone","response_text_entry",40423.9,NA,NA,"3",NA,"MetroPictureMapping",NA
"26",1601718920373,2,"03/10/2020 11:55:20","BLIND",6218947,NA,"complete",NA,"5f784135b1c1383c43376c63","computer","Desktop or Laptop","Mac OS 10.14.6","Safari 14.0","1440x900","1440x789","PictureMapping","PictureMapping","PictureMapping",1,"1",4,"PictureMapping","Zone1","continue_button",40423.9,NA,NA,"",NA,"MetroPictureMapping",NA
"27",1601718924850,2,"03/10/2020 11:55:24","BLIND",6218947,NA,"complete",NA,"5f784135b1c1383c43376c63","computer","Desktop or Laptop","Mac OS 10.14.6","Safari 14.0","1440x900","1440x789","PictureMapping","PictureMapping","PictureMapping",1,"1",5,"JoL2","Four","response_button_text",40423.9,NA,NA,"2",1,"MetroPictureMapping",NA
"28",1601718927954,2,"03/10/2020 11:55:27","BLIND",6218947,NA,"complete",NA,"5f784135b1c1383c43376c63","computer","Desktop or Laptop","Mac OS 10.14.6","Safari 14.0","1440x900","1440x789","PictureMapping","PictureMapping","PictureMapping",1,"1",6,"InstructieToets","advancementZone","continue_button",40423.9,NA,NA,"",NA,"MetroPictureMapping",NA
"29",1601719113364,2,"03/10/2020 11:58:33","BLIND",6218947,NA,"complete",NA,"5f784135b1c1383c43376c63","computer","Desktop or Laptop","Mac OS 10.14.6","Safari 14.0","1440x900","1440x789","PictureMapping","PictureMapping","PictureMapping",1,"1",7,"Test","buttonA","response_text_area",40423.9,NA,NA,"PwZ",NA,"MetroPictureMapping",NA
"3",1601718241523,2,"03/10/2020 11:44:01","BLIND",6218947,NA,"complete",NA,"5f784135b1c1383c43376c63","computer","Desktop or Laptop","Mac OS 10.14.6","Safari 14.0","1440x900","1440x789","PictureMapping","PictureMapping","PictureMapping",7,"1",2,"JoL1","Three","response_button_text",40423.9,NA,NA,"2",1,"BotoxPictureMapping",NA
"30",1601719113368,2,"03/10/2020 11:58:33","BLIND",6218947,NA,"complete",NA,"5f784135b1c1383c43376c63","computer","Desktop or Laptop","Mac OS 10.14.6","Safari 14.0","1440x900","1440x789","PictureMapping","PictureMapping","PictureMapping",1,"1",7,"Test","buttonB","continue_button",40423.9,NA,NA,"",NA,"MetroPictureMapping",NA
"31",1601719114596,2,"03/10/2020 11:58:34","BLIND",6218947,NA,"complete",NA,"5f784135b1c1383c43376c63","computer","Desktop or Laptop","Mac OS 10.14.6","Safari 14.0","1440x900","1440x789","PictureMapping","PictureMapping","PictureMapping",6,"3",1,"Screen 1","advancementZone","continue_button",40423.9,NA,NA,"",NA,"ReadyForNextTextScreen",NA
"32",1601719192116,2,"03/10/2020 11:59:52","BLIND",6218947,NA,"complete",NA,"5f784135b1c1383c43376c63","computer","Desktop or Laptop","Mac OS 10.14.6","Safari 14.0","1440x900","1440x789","PictureMapping","PictureMapping","PictureMapping",5,"1",1,"Text","advancementZone","continue_button",40423.9,NA,NA,"",NA,"SuezPictureMapping",NA
"33",1601719192915,2,"03/10/2020 11:59:52","BLIND",6218947,NA,"complete",NA,"5f784135b1c1383c43376c63","computer","Desktop or Laptop","Mac OS 10.14.6","Safari 14.0","1440x900","1440x789","PictureMapping","PictureMapping","PictureMapping",5,"1",2,"JoL1","Four","response_button_text",40423.9,NA,NA,"2",1,"SuezPictureMapping",NA
"34",1601719193950,2,"03/10/2020 11:59:53","BLIND",6218947,NA,"complete",NA,"5f784135b1c1383c43376c63","computer","Desktop or Laptop","Mac OS 10.14.6","Safari 14.0","1440x900","1440x789","PictureMapping","PictureMapping","PictureMapping",5,"1",3,"IntroPictureMapping","advancementZone","continue_keyboard",40423.9,NA,NA,"",NA,"SuezPictureMapping",NA
"35",1601719211817,2,"03/10/2020 12:00:11","BLIND",6218947,NA,"complete",NA,"5f784135b1c1383c43376c63","computer","Desktop or Laptop","Mac OS 10.14.6","Safari 14.0","1440x900","1440x789","PictureMapping","PictureMapping","PictureMapping",5,"1",4,"PictureMapping","advancementZone","response_text_entry",40423.9,NA,NA,"4",NA,"SuezPictureMapping",NA
"36",1601719211819,2,"03/10/2020 12:00:11","BLIND",6218947,NA,"complete",NA,"5f784135b1c1383c43376c63","computer","Desktop or Laptop","Mac OS 10.14.6","Safari 14.0","1440x900","1440x789","PictureMapping","PictureMapping","PictureMapping",5,"1",4,"PictureMapping","Zone1","continue_button",40423.9,NA,NA,"",NA,"SuezPictureMapping",NA
"37",1601719213148,2,"03/10/2020 12:00:13","BLIND",6218947,NA,"complete",NA,"5f784135b1c1383c43376c63","computer","Desktop or Laptop","Mac OS 10.14.6","Safari 14.0","1440x900","1440x789","PictureMapping","PictureMapping","PictureMapping",5,"1",5,"JoL2","Four","response_button_text",40423.9,NA,NA,"2",1,"SuezPictureMapping",NA
"38",1601719215020,2,"03/10/2020 12:00:15","BLIND",6218947,NA,"complete",NA,"5f784135b1c1383c43376c63","computer","Desktop or Laptop","Mac OS 10.14.6","Safari 14.0","1440x900","1440x789","PictureMapping","PictureMapping","PictureMapping",5,"1",6,"InstructieToets","advancementZone","continue_button",40423.9,NA,NA,"",NA,"SuezPictureMapping",NA
"39",1601719436749,2,"03/10/2020 12:03:56","BLIND",6218947,NA,"complete",NA,"5f784135b1c1383c43376c63","computer","Desktop or Laptop","Mac OS 10.14.6","Safari 14.0","1440x900","1440x789","PictureMapping","PictureMapping","PictureMapping",5,"1",7,"Test","buttonA","response_text_area",40423.9,NA,NA,"JQ",NA,"SuezPictureMapping",NA
"4",1601718244148,2,"03/10/2020 11:44:04","BLIND",6218947,NA,"complete",NA,"5f784135b1c1383c43376c63","computer","Desktop or Laptop","Mac OS 10.14.6","Safari 14.0","1440x900","1440x789","PictureMapping","PictureMapping","PictureMapping",7,"1",3,"IntroPictureMapping","advancementZone","continue_keyboard",40423.9,NA,NA,"",NA,"BotoxPictureMapping",NA
"40",1601719436753,2,"03/10/2020 12:03:56","BLIND",6218947,NA,"complete",NA,"5f784135b1c1383c43376c63","computer","Desktop or Laptop","Mac OS 10.14.6","Safari 14.0","1440x900","1440x789","PictureMapping","PictureMapping","PictureMapping",5,"1",7,"Test","buttonB","continue_button",40423.9,NA,NA,"",NA,"SuezPictureMapping",NA
"41",1601719438578,2,"03/10/2020 12:03:58","BLIND",6218947,NA,"complete",NA,"5f784135b1c1383c43376c63","computer","Desktop or Laptop","Mac OS 10.14.6","Safari 14.0","1440x900","1440x789","PictureMapping","PictureMapping","PictureMapping",8,"4",1,"Screen 1","advancementZone","continue_button",40423.9,NA,NA,"",NA,"ReadyForNextTextScreen",NA
"42",1601719570099,2,"03/10/2020 12:06:10","BLIND",6218947,NA,"complete",NA,"5f784135b1c1383c43376c63","computer","Desktop or Laptop","Mac OS 10.14.6","Safari 14.0","1440x900","1440x789","PictureMapping","PictureMapping","PictureMapping",9,"1",1,"Text","advancementZone","continue_button",40423.9,NA,NA,"",NA,"MuziekPictureMapping",NA
"43",1601719571894,2,"03/10/2020 12:06:11","BLIND",6218947,NA,"complete",NA,"5f784135b1c1383c43376c63","computer","Desktop or Laptop","Mac OS 10.14.6","Safari 14.0","1440x900","1440x789","PictureMapping","PictureMapping","PictureMapping",9,"1",2,"JoL1","Four","response_button_text",40423.9,NA,NA,"2",1,"MuziekPictureMapping",NA
"44",1601719572863,2,"03/10/2020 12:06:12","BLIND",6218947,NA,"complete",NA,"5f784135b1c1383c43376c63","computer","Desktop or Laptop","Mac OS 10.14.6","Safari 14.0","1440x900","1440x789","PictureMapping","PictureMapping","PictureMapping",9,"1",3,"IntroPictureMapping","advancementZone","continue_keyboard",40423.9,NA,NA,"",NA,"MuziekPictureMapping",NA
"45",1601719640188,2,"03/10/2020 12:07:20","BLIND",6218947,NA,"complete",NA,"5f784135b1c1383c43376c63","computer","Desktop or Laptop","Mac OS 10.14.6","Safari 14.0","1440x900","1440x789","PictureMapping","PictureMapping","PictureMapping",9,"1",4,"PictureMapping","advancementZone","response_text_entry",40423.9,NA,NA,"2",NA,"MuziekPictureMapping",NA
"46",1601719640190,2,"03/10/2020 12:07:20","BLIND",6218947,NA,"complete",NA,"5f784135b1c1383c43376c63","computer","Desktop or Laptop","Mac OS 10.14.6","Safari 14.0","1440x900","1440x789","PictureMapping","PictureMapping","PictureMapping",9,"1",4,"PictureMapping","Zone1","continue_button",40423.9,NA,NA,"",NA,"MuziekPictureMapping",NA
"47",1601719640825,2,"03/10/2020 12:07:20","BLIND",6218947,NA,"complete",NA,"5f784135b1c1383c43376c63","computer","Desktop or Laptop","Mac OS 10.14.6","Safari 14.0","1440x900","1440x789","PictureMapping","PictureMapping","PictureMapping",9,"1",5,"JoL2","Four","response_button_text",40423.9,NA,NA,"2",1,"MuziekPictureMapping",NA
"48",1601719641831,2,"03/10/2020 12:07:21","BLIND",6218947,NA,"complete",NA,"5f784135b1c1383c43376c63","computer","Desktop or Laptop","Mac OS 10.14.6","Safari 14.0","1440x900","1440x789","PictureMapping","PictureMapping","PictureMapping",9,"1",6,"InstructieToets","advancementZone","continue_button",40423.9,NA,NA,"",NA,"MuziekPictureMapping",NA
"49",1601719801170,2,"03/10/2020 12:10:01","BLIND",6218947,NA,"complete",NA,"5f784135b1c1383c43376c63","computer","Desktop or Laptop","Mac OS 10.14.6","Safari 14.0","1440x900","1440x789","PictureMapping","PictureMapping","PictureMapping",9,"1",7,"Test","buttonA","response_text_area",40423.9,NA,NA,"ukbMiOW1",NA,"MuziekPictureMapping",NA
"5",1601718276600,2,"03/10/2020 11:44:36","BLIND",6218947,NA,"complete",NA,"5f784135b1c1383c43376c63","computer","Desktop or Laptop","Mac OS 10.14.6","Safari 14.0","1440x900","1440x789","PictureMapping","PictureMapping","PictureMapping",7,"1",4,"PictureMapping","advancementZone","response_text_entry",40423.9,NA,NA,"4",NA,"BotoxPictureMapping",NA
"50",1601719801173,2,"03/10/2020 12:10:01","BLIND",6218947,NA,"complete",NA,"5f784135b1c1383c43376c63","computer","Desktop or Laptop","Mac OS 10.14.6","Safari 14.0","1440x900","1440x789","PictureMapping","PictureMapping","PictureMapping",9,"1",7,"Test","buttonB","continue_button",40423.9,NA,NA,"",NA,"MuziekPictureMapping",NA
"51",1601719805797,2,"03/10/2020 12:10:05","BLIND",6218947,NA,"complete",NA,"5f784135b1c1383c43376c63","computer","Desktop or Laptop","Mac OS 10.14.6","Safari 14.0","1440x900","1440x789","PictureMapping","PictureMapping","PictureMapping",10,"5",1,"Screen 1","advancementZone","continue_button",40423.9,NA,NA,"",NA,"ReadyForNextTextScreen",NA
"52",1601720011290,2,"03/10/2020 12:13:31","BLIND",6218947,NA,"complete",NA,"5f784135b1c1383c43376c63","computer","Desktop or Laptop","Mac OS 10.14.6","Safari 14.0","1440x900","1440x789","PictureMapping","PictureMapping","PictureMapping",11,"1",1,"Text","advancementZone","continue_button",40423.9,NA,NA,"",NA,"GeldPictureMapping",NA
"53",1601720012301,2,"03/10/2020 12:13:32","BLIND",6218947,NA,"complete",NA,"5f784135b1c1383c43376c63","computer","Desktop or Laptop","Mac OS 10.14.6","Safari 14.0","1440x900","1440x789","PictureMapping","PictureMapping","PictureMapping",11,"1",2,"JoL1","Four","response_button_text",40423.9,NA,NA,"2",1,"GeldPictureMapping",NA
"54",1601720013196,2,"03/10/2020 12:13:33","BLIND",6218947,NA,"complete",NA,"5f784135b1c1383c43376c63","computer","Desktop or Laptop","Mac OS 10.14.6","Safari 14.0","1440x900","1440x789","PictureMapping","PictureMapping","PictureMapping",11,"1",3,"IntroPictureMapping","advancementZone","continue_keyboard",40423.9,NA,NA,"",NA,"GeldPictureMapping",NA
"55",1601720038529,2,"03/10/2020 12:13:58","BLIND",6218947,NA,"complete",NA,"5f784135b1c1383c43376c63","computer","Desktop or Laptop","Mac OS 10.14.6","Safari 14.0","1440x900","1440x789","PictureMapping","PictureMapping","PictureMapping",11,"1",4,"PictureMapping","advancementZone","response_text_entry",40423.9,NA,NA,"3",NA,"GeldPictureMapping",NA
"56",1601720038531,2,"03/10/2020 12:13:58","BLIND",6218947,NA,"complete",NA,"5f784135b1c1383c43376c63","computer","Desktop or Laptop","Mac OS 10.14.6","Safari 14.0","1440x900","1440x789","PictureMapping","PictureMapping","PictureMapping",11,"1",4,"PictureMapping","Zone1","continue_button",40423.9,NA,NA,"",NA,"GeldPictureMapping",NA
"57",1601720039486,2,"03/10/2020 12:13:59","BLIND",6218947,NA,"complete",NA,"5f784135b1c1383c43376c63","computer","Desktop or Laptop","Mac OS 10.14.6","Safari 14.0","1440x900","1440x789","PictureMapping","PictureMapping","PictureMapping",11,"1",5,"JoL2","Four","response_button_text",40423.9,NA,NA,"2",1,"GeldPictureMapping",NA
"58",1601720041121,2,"03/10/2020 12:14:01","BLIND",6218947,NA,"complete",NA,"5f784135b1c1383c43376c63","computer","Desktop or Laptop","Mac OS 10.14.6","Safari 14.0","1440x900","1440x789","PictureMapping","PictureMapping","PictureMapping",11,"1",6,"ToetsInstructie","advancementZone","continue_button",40423.9,NA,NA,"",NA,"GeldPictureMapping",NA
"59",1601720184454,2,"03/10/2020 12:16:24","BLIND",6218947,NA,"complete",NA,"5f784135b1c1383c43376c63","computer","Desktop or Laptop","Mac OS 10.14.6","Safari 14.0","1440x900","1440x789","PictureMapping","PictureMapping","PictureMapping",11,"1",7,"Test","buttonA","response_text_area",40423.9,NA,NA,"YcvQyRcW4",NA,"GeldPictureMapping",NA
"6",1601718276603,2,"03/10/2020 11:44:36","BLIND",6218947,NA,"complete",NA,"5f784135b1c1383c43376c63","computer","Desktop or Laptop","Mac OS 10.14.6","Safari 14.0","1440x900","1440x789","PictureMapping","PictureMapping","PictureMapping",7,"1",4,"PictureMapping","Zone1","continue_button",40423.9,NA,NA,"",NA,"BotoxPictureMapping",NA
"60",1601720184456,2,"03/10/2020 12:16:24","BLIND",6218947,NA,"complete",NA,"5f784135b1c1383c43376c63","computer","Desktop or Laptop","Mac OS 10.14.6","Safari 14.0","1440x900","1440x789","PictureMapping","PictureMapping","PictureMapping",11,"1",7,"Test","buttonB","continue_button",40423.9,NA,NA,"",NA,"GeldPictureMapping",NA
"61",1601720184457,2,"03/10/2020 12:16:24","BLIND",6218947,NA,"complete",NA,"5f784135b1c1383c43376c63","computer","Desktop or Laptop","Mac OS 10.14.6","Safari 14.0","1440x900","1440x789","PictureMapping","PictureMapping","",NA,"END TASK",NA,"","","",2062773,NA,NA,"",NA,"",NA
"7",1601718280060,2,"03/10/2020 11:44:40","BLIND",6218947,NA,"complete",NA,"5f784135b1c1383c43376c63","computer","Desktop or Laptop","Mac OS 10.14.6","Safari 14.0","1440x900","1440x789","PictureMapping","PictureMapping","PictureMapping",7,"1",5,"JoL2","Four","response_button_text",40423.9,NA,NA,"2",1,"BotoxPictureMapping",NA
"8",1601718281326,2,"03/10/2020 11:44:41","BLIND",6218947,NA,"complete",NA,"5f784135b1c1383c43376c63","computer","Desktop or Laptop","Mac OS 10.14.6","Safari 14.0","1440x900","1440x789","PictureMapping","PictureMapping","PictureMapping",7,"1",6,"InstructieToets","advancementZone","continue_button",40423.9,NA,NA,"",NA,"BotoxPictureMapping",NA
"9",1601718474139,2,"03/10/2020 11:47:54","BLIND",6218947,NA,"complete",NA,"5f784135b1c1383c43376c63","computer","Desktop or Laptop","Mac OS 10.14.6","Safari 14.0","1440x900","1440x789","PictureMapping","PictureMapping","PictureMapping",7,"1",7,"Test","buttonA","response_text_area",40423.9,NA,NA,"SFU9zfc",NA,"BotoxPictureMapping",NA
"1",1601674108478,2,"02/10/2020 23:28:28","BLIND",7153620,NA,"complete",NA,"5f7799656806a61a583dc152","computer","Desktop or Laptop","Windows 10","Chrome 85.0.4183.121","1536x864","1536x754","PictureMapping","PictureMapping","",NA,"BEGIN TASK",NA,"","","",NA,NA,NA,"",NA,"",NA
"10",1601674366817,2,"02/10/2020 23:32:46","BLIND",7153620,NA,"complete",NA,"5f7799656806a61a583dc152","computer","Desktop or Laptop","Windows 10","Chrome 85.0.4183.121","1536x864","1536x754","PictureMapping","PictureMapping","PictureMapping",11,"1",7,"Test","buttonB","continue_button",40423.9,NA,NA,"",NA,"GeldPictureMapping",NA
"11",1601674370662,2,"02/10/2020 23:32:50","BLIND",7153620,NA,"complete",NA,"5f7799656806a61a583dc152","computer","Desktop or Laptop","Windows 10","Chrome 85.0.4183.121","1536x864","1536x754","PictureMapping","PictureMapping","PictureMapping",2,"1",1,"Screen 1","advancementZone","continue_button",40423.9,NA,NA,"",NA,"ReadyForNextTextScreen",NA
"12",1601674445694,2,"02/10/2020 23:34:05","BLIND",7153620,NA,"complete",NA,"5f7799656806a61a583dc152","computer","Desktop or Laptop","Windows 10","Chrome 85.0.4183.121","1536x864","1536x754","PictureMapping","PictureMapping","PictureMapping",9,"1",1,"Text","advancementZone","continue_button",40423.9,NA,NA,"",NA,"MuziekPictureMapping",NA
"13",1601674450441,2,"02/10/2020 23:34:10","BLIND",7153620,NA,"complete",NA,"5f7799656806a61a583dc152","computer","Desktop or Laptop","Windows 10","Chrome 85.0.4183.121","1536x864","1536x754","PictureMapping","PictureMapping","PictureMapping",9,"1",2,"JoL1","Three","response_button_text",40423.9,NA,NA,"2",1,"MuziekPictureMapping",NA
"14",1601674516329,2,"02/10/2020 23:35:16","BLIND",7153620,NA,"complete",NA,"5f7799656806a61a583dc152","computer","Desktop or Laptop","Windows 10","Chrome 85.0.4183.121","1536x864","1536x754","PictureMapping","PictureMapping","PictureMapping",9,"1",3,"IntroPictureMapping","advancementZone","continue_keyboard",40423.9,NA,NA,"",NA,"MuziekPictureMapping",NA
"15",1601674604796,2,"02/10/2020 23:36:44","BLIND",7153620,NA,"complete",NA,"5f7799656806a61a583dc152","computer","Desktop or Laptop","Windows 10","Chrome 85.0.4183.121","1536x864","1536x754","PictureMapping","PictureMapping","PictureMapping",9,"1",4,"PictureMapping","advancementZone","response_text_entry",40423.9,NA,NA,"0",NA,"MuziekPictureMapping",NA
"16",1601674604800,2,"02/10/2020 23:36:44","BLIND",7153620,NA,"complete",NA,"5f7799656806a61a583dc152","computer","Desktop or Laptop","Windows 10","Chrome 85.0.4183.121","1536x864","1536x754","PictureMapping","PictureMapping","PictureMapping",9,"1",4,"PictureMapping","Zone1","continue_button",40423.9,NA,NA,"",NA,"MuziekPictureMapping",NA
"17",1601674608678,2,"02/10/2020 23:36:48","BLIND",7153620,NA,"complete",NA,"5f7799656806a61a583dc152","computer","Desktop or Laptop","Windows 10","Chrome 85.0.4183.121","1536x864","1536x754","PictureMapping","PictureMapping","PictureMapping",9,"1",5,"JoL2","Two","response_button_text",40423.9,NA,NA,"2",1,"MuziekPictureMapping",NA
"18",1601674630435,2,"02/10/2020 23:37:10","BLIND",7153620,NA,"complete",NA,"5f7799656806a61a583dc152","computer","Desktop or Laptop","Windows 10","Chrome 85.0.4183.121","1536x864","1536x754","PictureMapping","PictureMapping","PictureMapping",9,"1",6,"InstructieToets","advancementZone","continue_button",40423.9,NA,NA,"",NA,"MuziekPictureMapping",NA
"19",1601674740266,2,"02/10/2020 23:39:00","BLIND",7153620,NA,"complete",NA,"5f7799656806a61a583dc152","computer","Desktop or Laptop","Windows 10","Chrome 85.0.4183.121","1536x864","1536x754","PictureMapping","PictureMapping","PictureMapping",9,"1",7,"Test","buttonA","response_text_area",40423.9,NA,NA,"An1AONNtA",NA,"MuziekPictureMapping",NA
"2",1601674195628,2,"02/10/2020 23:29:55","BLIND",7153620,NA,"complete",NA,"5f7799656806a61a583dc152","computer","Desktop or Laptop","Windows 10","Chrome 85.0.4183.121","1536x864","1536x754","PictureMapping","PictureMapping","PictureMapping",11,"1",1,"Text","advancementZone","continue_button",40423.9,NA,NA,"",NA,"GeldPictureMapping",NA
"20",1601674740272,2,"02/10/2020 23:39:00","BLIND",7153620,NA,"complete",NA,"5f7799656806a61a583dc152","computer","Desktop or Laptop","Windows 10","Chrome 85.0.4183.121","1536x864","1536x754","PictureMapping","PictureMapping","PictureMapping",9,"1",7,"Test","buttonB","continue_button",40423.9,NA,NA,"",NA,"MuziekPictureMapping",NA
"21",1601674852653,2,"02/10/2020 23:40:52","BLIND",7153620,NA,"complete",NA,"5f7799656806a61a583dc152","computer","Desktop or Laptop","Windows 10","Chrome 85.0.4183.121","1536x864","1536x754","PictureMapping","PictureMapping","PictureMapping",4,"2",1,"Screen 1","advancementZone","continue_button",40423.9,NA,NA,"",NA,"ReadyForNextTextScreen",NA
"22",1601674858853,2,"02/10/2020 23:40:58","BLIND",7153620,NA,"complete",NA,"5f7799656806a61a583dc152","computer","Desktop or Laptop","Windows 10","Chrome 85.0.4183.121","1536x864","1536x754","PictureMapping","PictureMapping","PictureMapping",1,"1",1,"Text","advancementZone","continue_button",40423.9,NA,NA,"",NA,"MetroPictureMapping",NA
"23",1601674861330,2,"02/10/2020 23:41:01","BLIND",7153620,NA,"complete",NA,"5f7799656806a61a583dc152","computer","Desktop or Laptop","Windows 10","Chrome 85.0.4183.121","1536x864","1536x754","PictureMapping","PictureMapping","PictureMapping",1,"1",2,"JoL1","Three","response_button_text",40423.9,NA,NA,"2",1,"MetroPictureMapping",NA
"24",1601674863386,2,"02/10/2020 23:41:03","BLIND",7153620,NA,"complete",NA,"5f7799656806a61a583dc152","computer","Desktop or Laptop","Windows 10","Chrome 85.0.4183.121","1536x864","1536x754","PictureMapping","PictureMapping","PictureMapping",1,"1",3,"IntroPictureMapping","advancementZone","continue_keyboard",40423.9,NA,NA,"",NA,"MetroPictureMapping",NA
"25",1601674908559,2,"02/10/2020 23:41:48","BLIND",7153620,NA,"complete",NA,"5f7799656806a61a583dc152","computer","Desktop or Laptop","Windows 10","Chrome 85.0.4183.121","1536x864","1536x754","PictureMapping","PictureMapping","PictureMapping",1,"1",4,"PictureMapping","advancementZone","response_text_entry",40423.9,NA,NA,"2",NA,"MetroPictureMapping",NA
"26",1601674908563,2,"02/10/2020 23:41:48","BLIND",7153620,NA,"complete",NA,"5f7799656806a61a583dc152","computer","Desktop or Laptop","Windows 10","Chrome 85.0.4183.121","1536x864","1536x754","PictureMapping","PictureMapping","PictureMapping",1,"1",4,"PictureMapping","Zone1","continue_button",40423.9,NA,NA,"",NA,"MetroPictureMapping",NA
"27",1601674910608,2,"02/10/2020 23:41:50","BLIND",7153620,NA,"complete",NA,"5f7799656806a61a583dc152","computer","Desktop or Laptop","Windows 10","Chrome 85.0.4183.121","1536x864","1536x754","PictureMapping","PictureMapping","PictureMapping",1,"1",5,"JoL2","Two","response_button_text",40423.9,NA,NA,"2",1,"MetroPictureMapping",NA
"28",1601674917562,2,"02/10/2020 23:41:57","BLIND",7153620,NA,"complete",NA,"5f7799656806a61a583dc152","computer","Desktop or Laptop","Windows 10","Chrome 85.0.4183.121","1536x864","1536x754","PictureMapping","PictureMapping","PictureMapping",1,"1",6,"InstructieToets","advancementZone","continue_button",40423.9,NA,NA,"",NA,"MetroPictureMapping",NA
"29",1601675056072,2,"02/10/2020 23:44:16","BLIND",7153620,NA,"complete",NA,"5f7799656806a61a583dc152","computer","Desktop or Laptop","Windows 10","Chrome 85.0.4183.121","1536x864","1536x754","PictureMapping","PictureMapping","PictureMapping",1,"1",7,"Test","buttonA","response_text_area",40423.9,NA,NA,"E55H4yO",NA,"MetroPictureMapping",NA
"3",1601674197539,2,"02/10/2020 23:29:57","BLIND",7153620,NA,"complete",NA,"5f7799656806a61a583dc152","computer","Desktop or Laptop","Windows 10","Chrome 85.0.4183.121","1536x864","1536x754","PictureMapping","PictureMapping","PictureMapping",11,"1",2,"JoL1","Three","response_button_text",40423.9,NA,NA,"2",1,"GeldPictureMapping",NA
"30",1601675056076,2,"02/10/2020 23:44:16","BLIND",7153620,NA,"complete",NA,"5f7799656806a61a583dc152","computer","Desktop or Laptop","Windows 10","Chrome 85.0.4183.121","1536x864","1536x754","PictureMapping","PictureMapping","PictureMapping",1,"1",7,"Test","buttonB","continue_button",40423.9,NA,NA,"",NA,"MetroPictureMapping",NA
"31",1601675057858,2,"02/10/2020 23:44:17","BLIND",7153620,NA,"complete",NA,"5f7799656806a61a583dc152","computer","Desktop or Laptop","Windows 10","Chrome 85.0.4183.121","1536x864","1536x754","PictureMapping","PictureMapping","PictureMapping",6,"3",1,"Screen 1","advancementZone","continue_button",40423.9,NA,NA,"",NA,"ReadyForNextTextScreen",NA
"32",1601675133444,2,"02/10/2020 23:45:33","BLIND",7153620,NA,"complete",NA,"5f7799656806a61a583dc152","computer","Desktop or Laptop","Windows 10","Chrome 85.0.4183.121","1536x864","1536x754","PictureMapping","PictureMapping","PictureMapping",7,"1",1,"Text","advancementZone","continue_button",40423.9,NA,NA,"",NA,"BotoxPictureMapping",NA
"33",1601675136380,2,"02/10/2020 23:45:36","BLIND",7153620,NA,"complete",NA,"5f7799656806a61a583dc152","computer","Desktop or Laptop","Windows 10","Chrome 85.0.4183.121","1536x864","1536x754","PictureMapping","PictureMapping","PictureMapping",7,"1",2,"JoL1","Three","response_button_text",40423.9,NA,NA,"2",1,"BotoxPictureMapping",NA
"34",1601675138132,2,"02/10/2020 23:45:38","BLIND",7153620,NA,"complete",NA,"5f7799656806a61a583dc152","computer","Desktop or Laptop","Windows 10","Chrome 85.0.4183.121","1536x864","1536x754","PictureMapping","PictureMapping","PictureMapping",7,"1",3,"IntroPictureMapping","advancementZone","continue_keyboard",40423.9,NA,NA,"",NA,"BotoxPictureMapping",NA
"35",1601675170938,2,"02/10/2020 23:46:10","BLIND",7153620,NA,"complete",NA,"5f7799656806a61a583dc152","computer","Desktop or Laptop","Windows 10","Chrome 85.0.4183.121","1536x864","1536x754","PictureMapping","PictureMapping","PictureMapping",7,"1",4,"PictureMapping","advancementZone","response_text_entry",40423.9,NA,NA,"4",NA,"BotoxPictureMapping",NA
"36",1601675170943,2,"02/10/2020 23:46:10","BLIND",7153620,NA,"complete",NA,"5f7799656806a61a583dc152","computer","Desktop or Laptop","Windows 10","Chrome 85.0.4183.121","1536x864","1536x754","PictureMapping","PictureMapping","PictureMapping",7,"1",4,"PictureMapping","Zone1","continue_button",40423.9,NA,NA,"",NA,"BotoxPictureMapping",NA
"37",1601675174650,2,"02/10/2020 23:46:14","BLIND",7153620,NA,"complete",NA,"5f7799656806a61a583dc152","computer","Desktop or Laptop","Windows 10","Chrome 85.0.4183.121","1536x864","1536x754","PictureMapping","PictureMapping","PictureMapping",7,"1",5,"JoL2","Three","response_button_text",40423.9,NA,NA,"2",1,"BotoxPictureMapping",NA
"38",1601675192907,2,"02/10/2020 23:46:32","BLIND",7153620,NA,"complete",NA,"5f7799656806a61a583dc152","computer","Desktop or Laptop","Windows 10","Chrome 85.0.4183.121","1536x864","1536x754","PictureMapping","PictureMapping","PictureMapping",7,"1",6,"InstructieToets","advancementZone","continue_button",40423.9,NA,NA,"",NA,"BotoxPictureMapping",NA
"39",1601675267074,2,"02/10/2020 23:47:47","BLIND",7153620,NA,"complete",NA,"5f7799656806a61a583dc152","computer","Desktop or Laptop","Windows 10","Chrome 85.0.4183.121","1536x864","1536x754","PictureMapping","PictureMapping","PictureMapping",7,"1",7,"Test","buttonA","response_text_area",40423.9,NA,NA,"hyDVfc",NA,"BotoxPictureMapping",NA
"4",1601674201190,2,"02/10/2020 23:30:01","BLIND",7153620,NA,"complete",NA,"5f7799656806a61a583dc152","computer","Desktop or Laptop","Windows 10","Chrome 85.0.4183.121","1536x864","1536x754","PictureMapping","PictureMapping","PictureMapping",11,"1",3,"IntroPictureMapping","advancementZone","continue_keyboard",40423.9,NA,NA,"",NA,"GeldPictureMapping",NA
"40",1601675267079,2,"02/10/2020 23:47:47","BLIND",7153620,NA,"complete",NA,"5f7799656806a61a583dc152","computer","Desktop or Laptop","Windows 10","Chrome 85.0.4183.121","1536x864","1536x754","PictureMapping","PictureMapping","PictureMapping",7,"1",7,"Test","buttonB","continue_button",40423.9,NA,NA,"",NA,"BotoxPictureMapping",NA
"41",1601675268110,2,"02/10/2020 23:47:48","BLIND",7153620,NA,"complete",NA,"5f7799656806a61a583dc152","computer","Desktop or Laptop","Windows 10","Chrome 85.0.4183.121","1536x864","1536x754","PictureMapping","PictureMapping","PictureMapping",8,"4",1,"Screen 1","advancementZone","continue_button",40423.9,NA,NA,"",NA,"ReadyForNextTextScreen",NA
"42",1601675343760,2,"02/10/2020 23:49:03","BLIND",7153620,NA,"complete",NA,"5f7799656806a61a583dc152","computer","Desktop or Laptop","Windows 10","Chrome 85.0.4183.121","1536x864","1536x754","PictureMapping","PictureMapping","PictureMapping",3,"1",1,"Text","advancementZone","continue_button",40423.9,NA,NA,"",NA,"BetonPictureMapping",NA
"43",1601675345678,2,"02/10/2020 23:49:05","BLIND",7153620,NA,"complete",NA,"5f7799656806a61a583dc152","computer","Desktop or Laptop","Windows 10","Chrome 85.0.4183.121","1536x864","1536x754","PictureMapping","PictureMapping","PictureMapping",3,"1",2,"JoL1","Three","response_button_text",40423.9,NA,NA,"2",1,"BetonPictureMapping",NA
"44",1601675357872,2,"02/10/2020 23:49:17","BLIND",7153620,NA,"complete",NA,"5f7799656806a61a583dc152","computer","Desktop or Laptop","Windows 10","Chrome 85.0.4183.121","1536x864","1536x754","PictureMapping","PictureMapping","PictureMapping",3,"1",3,"IntroPictureMapping","advancementZone","continue_keyboard",40423.9,NA,NA,"",NA,"BetonPictureMapping",NA
"45",1601675403295,2,"02/10/2020 23:50:03","BLIND",7153620,NA,"complete",NA,"5f7799656806a61a583dc152","computer","Desktop or Laptop","Windows 10","Chrome 85.0.4183.121","1536x864","1536x754","PictureMapping","PictureMapping","PictureMapping",3,"1",4,"PictureMapping","advancementZone","response_text_entry",40423.9,NA,NA,"3",NA,"BetonPictureMapping",NA
"46",1601675403299,2,"02/10/2020 23:50:03","BLIND",7153620,NA,"complete",NA,"5f7799656806a61a583dc152","computer","Desktop or Laptop","Windows 10","Chrome 85.0.4183.121","1536x864","1536x754","PictureMapping","PictureMapping","PictureMapping",3,"1",4,"PictureMapping","Zone1","continue_button",40423.9,NA,NA,"",NA,"BetonPictureMapping",NA
"47",1601675408441,2,"02/10/2020 23:50:08","BLIND",7153620,NA,"complete",NA,"5f7799656806a61a583dc152","computer","Desktop or Laptop","Windows 10","Chrome 85.0.4183.121","1536x864","1536x754","PictureMapping","PictureMapping","PictureMapping",3,"1",5,"JoL2","Two","response_button_text",40423.9,NA,NA,"2",1,"BetonPictureMapping",NA
"48",1601675420621,2,"02/10/2020 23:50:20","BLIND",7153620,NA,"complete",NA,"5f7799656806a61a583dc152","computer","Desktop or Laptop","Windows 10","Chrome 85.0.4183.121","1536x864","1536x754","PictureMapping","PictureMapping","PictureMapping",3,"1",6,"InstructieToets","advancementZone","continue_button",40423.9,NA,NA,"",NA,"BetonPictureMapping",NA
"49",1601675491411,2,"02/10/2020 23:51:31","BLIND",7153620,NA,"complete",NA,"5f7799656806a61a583dc152","computer","Desktop or Laptop","Windows 10","Chrome 85.0.4183.121","1536x864","1536x754","PictureMapping","PictureMapping","PictureMapping",3,"1",7,"Test","buttonA","response_text_area",40423.9,NA,NA,"8pDje2wQu",NA,"BetonPictureMapping",NA
"5",1601674239926,2,"02/10/2020 23:30:39","BLIND",7153620,NA,"complete",NA,"5f7799656806a61a583dc152","computer","Desktop or Laptop","Windows 10","Chrome 85.0.4183.121","1536x864","1536x754","PictureMapping","PictureMapping","PictureMapping",11,"1",4,"PictureMapping","advancementZone","response_text_entry",40423.9,NA,NA,"2",NA,"GeldPictureMapping",NA
"50",1601675491417,2,"02/10/2020 23:51:31","BLIND",7153620,NA,"complete",NA,"5f7799656806a61a583dc152","computer","Desktop or Laptop","Windows 10","Chrome 85.0.4183.121","1536x864","1536x754","PictureMapping","PictureMapping","PictureMapping",3,"1",7,"Test","buttonB","continue_button",40423.9,NA,NA,"",NA,"BetonPictureMapping",NA
"51",1601675496281,2,"02/10/2020 23:51:36","BLIND",7153620,NA,"complete",NA,"5f7799656806a61a583dc152","computer","Desktop or Laptop","Windows 10","Chrome 85.0.4183.121","1536x864","1536x754","PictureMapping","PictureMapping","PictureMapping",10,"5",1,"Screen 1","advancementZone","continue_button",40423.9,NA,NA,"",NA,"ReadyForNextTextScreen",NA
"52",1601675587477,2,"02/10/2020 23:53:07","BLIND",7153620,NA,"complete",NA,"5f7799656806a61a583dc152","computer","Desktop or Laptop","Windows 10","Chrome 85.0.4183.121","1536x864","1536x754","PictureMapping","PictureMapping","PictureMapping",5,"1",1,"Text","advancementZone","continue_button",40423.9,NA,NA,"",NA,"SuezPictureMapping",NA
"53",1601675589301,2,"02/10/2020 23:53:09","BLIND",7153620,NA,"complete",NA,"5f7799656806a61a583dc152","computer","Desktop or Laptop","Windows 10","Chrome 85.0.4183.121","1536x864","1536x754","PictureMapping","PictureMapping","PictureMapping",5,"1",2,"JoL1","Three","response_button_text",40423.9,NA,NA,"2",1,"SuezPictureMapping",NA
"54",1601675591013,2,"02/10/2020 23:53:11","BLIND",7153620,NA,"complete",NA,"5f7799656806a61a583dc152","computer","Desktop or Laptop","Windows 10","Chrome 85.0.4183.121","1536x864","1536x754","PictureMapping","PictureMapping","PictureMapping",5,"1",3,"IntroPictureMapping","advancementZone","continue_keyboard",40423.9,NA,NA,"",NA,"SuezPictureMapping",NA
"55",1601675669614,2,"02/10/2020 23:54:29","BLIND",7153620,NA,"complete",NA,"5f7799656806a61a583dc152","computer","Desktop or Laptop","Windows 10","Chrome 85.0.4183.121","1536x864","1536x754","PictureMapping","PictureMapping","PictureMapping",5,"1",4,"PictureMapping","advancementZone","response_text_entry",40423.9,NA,NA,"4",NA,"SuezPictureMapping",NA
"56",1601675669618,2,"02/10/2020 23:54:29","BLIND",7153620,NA,"complete",NA,"5f7799656806a61a583dc152","computer","Desktop or Laptop","Windows 10","Chrome 85.0.4183.121","1536x864","1536x754","PictureMapping","PictureMapping","PictureMapping",5,"1",4,"PictureMapping","Zone1","continue_button",40423.9,NA,NA,"",NA,"SuezPictureMapping",NA
"57",1601675672289,2,"02/10/2020 23:54:32","BLIND",7153620,NA,"complete",NA,"5f7799656806a61a583dc152","computer","Desktop or Laptop","Windows 10","Chrome 85.0.4183.121","1536x864","1536x754","PictureMapping","PictureMapping","PictureMapping",5,"1",5,"JoL2","Three","response_button_text",40423.9,NA,NA,"2",1,"SuezPictureMapping",NA
"58",1601675673742,2,"02/10/2020 23:54:33","BLIND",7153620,NA,"complete",NA,"5f7799656806a61a583dc152","computer","Desktop or Laptop","Windows 10","Chrome 85.0.4183.121","1536x864","1536x754","PictureMapping","PictureMapping","PictureMapping",5,"1",6,"InstructieToets","advancementZone","continue_button",40423.9,NA,NA,"",NA,"SuezPictureMapping",NA
"59",1601675765285,2,"02/10/2020 23:56:05","BLIND",7153620,NA,"complete",NA,"5f7799656806a61a583dc152","computer","Desktop or Laptop","Windows 10","Chrome 85.0.4183.121","1536x864","1536x754","PictureMapping","PictureMapping","PictureMapping",5,"1",7,"Test","buttonA","response_text_area",40423.9,NA,NA,"TYu",NA,"SuezPictureMapping",NA
"6",1601674239930,2,"02/10/2020 23:30:39","BLIND",7153620,NA,"complete",NA,"5f7799656806a61a583dc152","computer","Desktop or Laptop","Windows 10","Chrome 85.0.4183.121","1536x864","1536x754","PictureMapping","PictureMapping","PictureMapping",11,"1",4,"PictureMapping","Zone1","continue_button",40423.9,NA,NA,"",NA,"GeldPictureMapping",NA
"60",1601675765291,2,"02/10/2020 23:56:05","BLIND",7153620,NA,"complete",NA,"5f7799656806a61a583dc152","computer","Desktop or Laptop","Windows 10","Chrome 85.0.4183.121","1536x864","1536x754","PictureMapping","PictureMapping","PictureMapping",5,"1",7,"Test","buttonB","continue_button",40423.9,NA,NA,"",NA,"SuezPictureMapping",NA
"61",1601675765300,2,"02/10/2020 23:56:05","BLIND",7153620,NA,"complete",NA,"5f7799656806a61a583dc152","computer","Desktop or Laptop","Windows 10","Chrome 85.0.4183.121","1536x864","1536x754","PictureMapping","PictureMapping","",NA,"END TASK",NA,"","","",1656821,NA,NA,"",NA,"",NA
"7",1601674241940,2,"02/10/2020 23:30:41","BLIND",7153620,NA,"complete",NA,"5f7799656806a61a583dc152","computer","Desktop or Laptop","Windows 10","Chrome 85.0.4183.121","1536x864","1536x754","PictureMapping","PictureMapping","PictureMapping",11,"1",5,"JoL2","Three","response_button_text",40423.9,NA,NA,"2",1,"GeldPictureMapping",NA
"8",1601674268550,2,"02/10/2020 23:31:08","BLIND",7153620,NA,"complete",NA,"5f7799656806a61a583dc152","computer","Desktop or Laptop","Windows 10","Chrome 85.0.4183.121","1536x864","1536x754","PictureMapping","PictureMapping","PictureMapping",11,"1",6,"ToetsInstructie","advancementZone","continue_button",40423.9,NA,NA,"",NA,"GeldPictureMapping",NA
"9",1601674366812,2,"02/10/2020 23:32:46","BLIND",7153620,NA,"complete",NA,"5f7799656806a61a583dc152","computer","Desktop or Laptop","Windows 10","Chrome 85.0.4183.121","1536x864","1536x754","PictureMapping","PictureMapping","PictureMapping",11,"1",7,"Test","buttonA","response_text_area",40423.9,NA,NA,"NQ",NA,"GeldPictureMapping",NA
"1",1601662574361,2,"02/10/2020 20:16:14","BLIND",8400491,NA,"complete",NA,"5f776d0a89e29413cd7a7378","computer","Desktop or Laptop","Windows 10","Chrome 85.0.4183.121","1920x1080","1920x947","PictureMapping","PictureMapping","",NA,"BEGIN TASK",NA,"","","",NA,NA,NA,"",NA,"",NA
"10",1601662892548,2,"02/10/2020 20:21:32","BLIND",8400491,NA,"complete",NA,"5f776d0a89e29413cd7a7378","computer","Desktop or Laptop","Windows 10","Chrome 85.0.4183.121","1920x1080","1920x947","PictureMapping","PictureMapping","PictureMapping",1,"1",7,"Test","buttonB","continue_button",40423.9,NA,NA,"",NA,"MetroPictureMapping",NA
"11",1601662896813,2,"02/10/2020 20:21:36","BLIND",8400491,NA,"complete",NA,"5f776d0a89e29413cd7a7378","computer","Desktop or Laptop","Windows 10","Chrome 85.0.4183.121","1920x1080","1920x947","PictureMapping","PictureMapping","PictureMapping",2,"1",1,"Screen 1","advancementZone","continue_button",40423.9,NA,NA,"",NA,"ReadyForNextTextScreen",NA
"12",1601662942215,2,"02/10/2020 20:22:22","BLIND",8400491,NA,"complete",NA,"5f776d0a89e29413cd7a7378","computer","Desktop or Laptop","Windows 10","Chrome 85.0.4183.121","1920x1080","1920x947","PictureMapping","PictureMapping","PictureMapping",7,"1",1,"Text","advancementZone","continue_button",40423.9,NA,NA,"",NA,"BotoxPictureMapping",NA
"13",1601662943974,2,"02/10/2020 20:22:23","BLIND",8400491,NA,"complete",NA,"5f776d0a89e29413cd7a7378","computer","Desktop or Laptop","Windows 10","Chrome 85.0.4183.121","1920x1080","1920x947","PictureMapping","PictureMapping","PictureMapping",7,"1",2,"JoL1","Four","response_button_text",40423.9,NA,NA,"2",1,"BotoxPictureMapping",NA
"14",1601662945720,2,"02/10/2020 20:22:25","BLIND",8400491,NA,"complete",NA,"5f776d0a89e29413cd7a7378","computer","Desktop or Laptop","Windows 10","Chrome 85.0.4183.121","1920x1080","1920x947","PictureMapping","PictureMapping","PictureMapping",7,"1",3,"IntroPictureMapping","advancementZone","continue_keyboard",40423.9,NA,NA,"",NA,"BotoxPictureMapping",NA
"15",1601662964910,2,"02/10/2020 20:22:44","BLIND",8400491,NA,"complete",NA,"5f776d0a89e29413cd7a7378","computer","Desktop or Laptop","Windows 10","Chrome 85.0.4183.121","1920x1080","1920x947","PictureMapping","PictureMapping","PictureMapping",7,"1",4,"PictureMapping","advancementZone","response_text_entry",40423.9,NA,NA,"3",NA,"BotoxPictureMapping",NA
"16",1601662964910,2,"02/10/2020 20:22:44","BLIND",8400491,NA,"complete",NA,"5f776d0a89e29413cd7a7378","computer","Desktop or Laptop","Windows 10","Chrome 85.0.4183.121","1920x1080","1920x947","PictureMapping","PictureMapping","PictureMapping",7,"1",4,"PictureMapping","Zone1","continue_button",40423.9,NA,NA,"",NA,"BotoxPictureMapping",NA
"17",1601662965553,2,"02/10/2020 20:22:45","BLIND",8400491,NA,"complete",NA,"5f776d0a89e29413cd7a7378","computer","Desktop or Laptop","Windows 10","Chrome 85.0.4183.121","1920x1080","1920x947","PictureMapping","PictureMapping","PictureMapping",7,"1",5,"JoL2","Four","response_button_text",40423.9,NA,NA,"2",1,"BotoxPictureMapping",NA
"18",1601662966828,2,"02/10/2020 20:22:46","BLIND",8400491,NA,"complete",NA,"5f776d0a89e29413cd7a7378","computer","Desktop or Laptop","Windows 10","Chrome 85.0.4183.121","1920x1080","1920x947","PictureMapping","PictureMapping","PictureMapping",7,"1",6,"InstructieToets","advancementZone","continue_button",40423.9,NA,NA,"",NA,"BotoxPictureMapping",NA
"19",1601663120726,2,"02/10/2020 20:25:20","BLIND",8400491,NA,"complete",NA,"5f776d0a89e29413cd7a7378","computer","Desktop or Laptop","Windows 10","Chrome 85.0.4183.121","1920x1080","1920x947","PictureMapping","PictureMapping","PictureMapping",7,"1",7,"Test","buttonA","response_text_area",40423.9,NA,NA,"1qG",NA,"BotoxPictureMapping",NA
"2",1601662628302,2,"02/10/2020 20:17:08","BLIND",8400491,NA,"complete",NA,"5f776d0a89e29413cd7a7378","computer","Desktop or Laptop","Windows 10","Chrome 85.0.4183.121","1920x1080","1920x947","PictureMapping","PictureMapping","PictureMapping",1,"1",1,"Text","advancementZone","continue_button",40423.9,NA,NA,"",NA,"MetroPictureMapping",NA
"20",1601663120727,2,"02/10/2020 20:25:20","BLIND",8400491,NA,"complete",NA,"5f776d0a89e29413cd7a7378","computer","Desktop or Laptop","Windows 10","Chrome 85.0.4183.121","1920x1080","1920x947","PictureMapping","PictureMapping","PictureMapping",7,"1",7,"Test","buttonB","continue_button",40423.9,NA,NA,"",NA,"BotoxPictureMapping",NA
"21",1601663123275,2,"02/10/2020 20:25:23","BLIND",8400491,NA,"complete",NA,"5f776d0a89e29413cd7a7378","computer","Desktop or Laptop","Windows 10","Chrome 85.0.4183.121","1920x1080","1920x947","PictureMapping","PictureMapping","PictureMapping",4,"2",1,"Screen 1","advancementZone","continue_button",40423.9,NA,NA,"",NA,"ReadyForNextTextScreen",NA
"22",1601663211712,2,"02/10/2020 20:26:51","BLIND",8400491,NA,"complete",NA,"5f776d0a89e29413cd7a7378","computer","Desktop or Laptop","Windows 10","Chrome 85.0.4183.121","1920x1080","1920x947","PictureMapping","PictureMapping","PictureMapping",11,"1",1,"Text","advancementZone","continue_button",40423.9,NA,NA,"",NA,"GeldPictureMapping",NA
"23",1601663214318,2,"02/10/2020 20:26:54","BLIND",8400491,NA,"complete",NA,"5f776d0a89e29413cd7a7378","computer","Desktop or Laptop","Windows 10","Chrome 85.0.4183.121","1920x1080","1920x947","PictureMapping","PictureMapping","PictureMapping",11,"1",2,"JoL1","Two","response_button_text",40423.9,NA,NA,"2",1,"GeldPictureMapping",NA
"24",1601663215913,2,"02/10/2020 20:26:55","BLIND",8400491,NA,"complete",NA,"5f776d0a89e29413cd7a7378","computer","Desktop or Laptop","Windows 10","Chrome 85.0.4183.121","1920x1080","1920x947","PictureMapping","PictureMapping","PictureMapping",11,"1",3,"IntroPictureMapping","advancementZone","continue_keyboard",40423.9,NA,NA,"",NA,"GeldPictureMapping",NA
"25",1601663252164,2,"02/10/2020 20:27:32","BLIND",8400491,NA,"complete",NA,"5f776d0a89e29413cd7a7378","computer","Desktop or Laptop","Windows 10","Chrome 85.0.4183.121","1920x1080","1920x947","PictureMapping","PictureMapping","PictureMapping",11,"1",4,"PictureMapping","advancementZone","response_text_entry",40423.9,NA,NA,"4",NA,"GeldPictureMapping",NA
"26",1601663252165,2,"02/10/2020 20:27:32","BLIND",8400491,NA,"complete",NA,"5f776d0a89e29413cd7a7378","computer","Desktop or Laptop","Windows 10","Chrome 85.0.4183.121","1920x1080","1920x947","PictureMapping","PictureMapping","PictureMapping",11,"1",4,"PictureMapping","Zone1","continue_button",40423.9,NA,NA,"",NA,"GeldPictureMapping",NA
"27",1601663253340,2,"02/10/2020 20:27:33","BLIND",8400491,NA,"complete",NA,"5f776d0a89e29413cd7a7378","computer","Desktop or Laptop","Windows 10","Chrome 85.0.4183.121","1920x1080","1920x947","PictureMapping","PictureMapping","PictureMapping",11,"1",5,"JoL2","Two","response_button_text",40423.9,NA,NA,"2",1,"GeldPictureMapping",NA
"28",1601663254294,2,"02/10/2020 20:27:34","BLIND",8400491,NA,"complete",NA,"5f776d0a89e29413cd7a7378","computer","Desktop or Laptop","Windows 10","Chrome 85.0.4183.121","1920x1080","1920x947","PictureMapping","PictureMapping","PictureMapping",11,"1",6,"ToetsInstructie","advancementZone","continue_button",40423.9,NA,NA,"",NA,"GeldPictureMapping",NA
"29",1601663654988,2,"02/10/2020 20:34:14","BLIND",8400491,NA,"complete",NA,"5f776d0a89e29413cd7a7378","computer","Desktop or Laptop","Windows 10","Chrome 85.0.4183.121","1920x1080","1920x947","PictureMapping","PictureMapping","PictureMapping",11,"1",7,"Test","buttonA","response_text_area",40423.9,NA,NA,"L7",NA,"GeldPictureMapping",NA
"3",1601662630561,2,"02/10/2020 20:17:10","BLIND",8400491,NA,"complete",NA,"5f776d0a89e29413cd7a7378","computer","Desktop or Laptop","Windows 10","Chrome 85.0.4183.121","1920x1080","1920x947","PictureMapping","PictureMapping","PictureMapping",1,"1",2,"JoL1","Three","response_button_text",40423.9,NA,NA,"2",1,"MetroPictureMapping",NA
"30",1601663654991,2,"02/10/2020 20:34:14","BLIND",8400491,NA,"complete",NA,"5f776d0a89e29413cd7a7378","computer","Desktop or Laptop","Windows 10","Chrome 85.0.4183.121","1920x1080","1920x947","PictureMapping","PictureMapping","PictureMapping",11,"1",7,"Test","buttonB","continue_button",40423.9,NA,NA,"",NA,"GeldPictureMapping",NA
"31",1601663657072,2,"02/10/2020 20:34:17","BLIND",8400491,NA,"complete",NA,"5f776d0a89e29413cd7a7378","computer","Desktop or Laptop","Windows 10","Chrome 85.0.4183.121","1920x1080","1920x947","PictureMapping","PictureMapping","PictureMapping",6,"3",1,"Screen 1","advancementZone","continue_button",40423.9,NA,NA,"",NA,"ReadyForNextTextScreen",NA
"32",1601663728059,2,"02/10/2020 20:35:28","BLIND",8400491,NA,"complete",NA,"5f776d0a89e29413cd7a7378","computer","Desktop or Laptop","Windows 10","Chrome 85.0.4183.121","1920x1080","1920x947","PictureMapping","PictureMapping","PictureMapping",3,"1",1,"Text","advancementZone","continue_button",40423.9,NA,NA,"",NA,"BetonPictureMapping",NA
"33",1601663729507,2,"02/10/2020 20:35:29","BLIND",8400491,NA,"complete",NA,"5f776d0a89e29413cd7a7378","computer","Desktop or Laptop","Windows 10","Chrome 85.0.4183.121","1920x1080","1920x947","PictureMapping","PictureMapping","PictureMapping",3,"1",2,"JoL1","Three","response_button_text",40423.9,NA,NA,"2",1,"BetonPictureMapping",NA
"34",1601663730762,2,"02/10/2020 20:35:30","BLIND",8400491,NA,"complete",NA,"5f776d0a89e29413cd7a7378","computer","Desktop or Laptop","Windows 10","Chrome 85.0.4183.121","1920x1080","1920x947","PictureMapping","PictureMapping","PictureMapping",3,"1",3,"IntroPictureMapping","advancementZone","continue_keyboard",40423.9,NA,NA,"",NA,"BetonPictureMapping",NA
"35",1601663751994,2,"02/10/2020 20:35:51","BLIND",8400491,NA,"complete",NA,"5f776d0a89e29413cd7a7378","computer","Desktop or Laptop","Windows 10","Chrome 85.0.4183.121","1920x1080","1920x947","PictureMapping","PictureMapping","PictureMapping",3,"1",4,"PictureMapping","advancementZone","response_text_entry",40423.9,NA,NA,"5",NA,"BetonPictureMapping",NA
"36",1601663751995,2,"02/10/2020 20:35:51","BLIND",8400491,NA,"complete",NA,"5f776d0a89e29413cd7a7378","computer","Desktop or Laptop","Windows 10","Chrome 85.0.4183.121","1920x1080","1920x947","PictureMapping","PictureMapping","PictureMapping",3,"1",4,"PictureMapping","Zone1","continue_button",40423.9,NA,NA,"",NA,"BetonPictureMapping",NA
"37",1601663753229,2,"02/10/2020 20:35:53","BLIND",8400491,NA,"complete",NA,"5f776d0a89e29413cd7a7378","computer","Desktop or Laptop","Windows 10","Chrome 85.0.4183.121","1920x1080","1920x947","PictureMapping","PictureMapping","PictureMapping",3,"1",5,"JoL2","Three","response_button_text",40423.9,NA,NA,"2",1,"BetonPictureMapping",NA
"38",1601663755242,2,"02/10/2020 20:35:55","BLIND",8400491,NA,"complete",NA,"5f776d0a89e29413cd7a7378","computer","Desktop or Laptop","Windows 10","Chrome 85.0.4183.121","1920x1080","1920x947","PictureMapping","PictureMapping","PictureMapping",3,"1",6,"InstructieToets","advancementZone","continue_button",40423.9,NA,NA,"",NA,"BetonPictureMapping",NA
"39",1601663923280,2,"02/10/2020 20:38:43","BLIND",8400491,NA,"complete",NA,"5f776d0a89e29413cd7a7378","computer","Desktop or Laptop","Windows 10","Chrome 85.0.4183.121","1920x1080","1920x947","PictureMapping","PictureMapping","PictureMapping",3,"1",7,"Test","buttonA","response_text_area",40423.9,NA,NA,"HI",NA,"BetonPictureMapping",NA
"4",1601662632183,2,"02/10/2020 20:17:12","BLIND",8400491,NA,"complete",NA,"5f776d0a89e29413cd7a7378","computer","Desktop or Laptop","Windows 10","Chrome 85.0.4183.121","1920x1080","1920x947","PictureMapping","PictureMapping","PictureMapping",1,"1",3,"IntroPictureMapping","advancementZone","continue_keyboard",40423.9,NA,NA,"",NA,"MetroPictureMapping",NA
"40",1601663923281,2,"02/10/2020 20:38:43","BLIND",8400491,NA,"complete",NA,"5f776d0a89e29413cd7a7378","computer","Desktop or Laptop","Windows 10","Chrome 85.0.4183.121","1920x1080","1920x947","PictureMapping","PictureMapping","PictureMapping",3,"1",7,"Test","buttonB","continue_button",40423.9,NA,NA,"",NA,"BetonPictureMapping",NA
"41",1601663924308,2,"02/10/2020 20:38:44","BLIND",8400491,NA,"complete",NA,"5f776d0a89e29413cd7a7378","computer","Desktop or Laptop","Windows 10","Chrome 85.0.4183.121","1920x1080","1920x947","PictureMapping","PictureMapping","PictureMapping",8,"4",1,"Screen 1","advancementZone","continue_button",40423.9,NA,NA,"",NA,"ReadyForNextTextScreen",NA
"42",1601664709710,2,"02/10/2020 20:51:49","BLIND",8400491,NA,"complete",NA,"5f776d0a89e29413cd7a7378","computer","Desktop or Laptop","Windows 10","Chrome 85.0.4183.121","1920x1080","1920x947","PictureMapping","PictureMapping","PictureMapping",9,"1",1,"Text","advancementZone","continue_button",40423.9,NA,NA,"",NA,"MuziekPictureMapping",NA
"43",1601664711180,2,"02/10/2020 20:51:51","BLIND",8400491,NA,"complete",NA,"5f776d0a89e29413cd7a7378","computer","Desktop or Laptop","Windows 10","Chrome 85.0.4183.121","1920x1080","1920x947","PictureMapping","PictureMapping","PictureMapping",9,"1",2,"JoL1","Two","response_button_text",40423.9,NA,NA,"2",1,"MuziekPictureMapping",NA
"44",1601664712990,2,"02/10/2020 20:51:52","BLIND",8400491,NA,"complete",NA,"5f776d0a89e29413cd7a7378","computer","Desktop or Laptop","Windows 10","Chrome 85.0.4183.121","1920x1080","1920x947","PictureMapping","PictureMapping","PictureMapping",9,"1",3,"IntroPictureMapping","advancementZone","continue_keyboard",40423.9,NA,NA,"",NA,"MuziekPictureMapping",NA
"45",1601664783382,2,"02/10/2020 20:53:03","BLIND",8400491,NA,"complete",NA,"5f776d0a89e29413cd7a7378","computer","Desktop or Laptop","Windows 10","Chrome 85.0.4183.121","1920x1080","1920x947","PictureMapping","PictureMapping","PictureMapping",9,"1",4,"PictureMapping","advancementZone","response_text_entry",40423.9,NA,NA,"3",NA,"MuziekPictureMapping",NA
"46",1601664783383,2,"02/10/2020 20:53:03","BLIND",8400491,NA,"complete",NA,"5f776d0a89e29413cd7a7378","computer","Desktop or Laptop","Windows 10","Chrome 85.0.4183.121","1920x1080","1920x947","PictureMapping","PictureMapping","PictureMapping",9,"1",4,"PictureMapping","Zone1","continue_button",40423.9,NA,NA,"",NA,"MuziekPictureMapping",NA
"47",1601664785111,2,"02/10/2020 20:53:05","BLIND",8400491,NA,"complete",NA,"5f776d0a89e29413cd7a7378","computer","Desktop or Laptop","Windows 10","Chrome 85.0.4183.121","1920x1080","1920x947","PictureMapping","PictureMapping","PictureMapping",9,"1",5,"JoL2","Two","response_button_text",40423.9,NA,NA,"2",1,"MuziekPictureMapping",NA
"48",1601664786403,2,"02/10/2020 20:53:06","BLIND",8400491,NA,"complete",NA,"5f776d0a89e29413cd7a7378","computer","Desktop or Laptop","Windows 10","Chrome 85.0.4183.121","1920x1080","1920x947","PictureMapping","PictureMapping","PictureMapping",9,"1",6,"InstructieToets","advancementZone","continue_button",40423.9,NA,NA,"",NA,"MuziekPictureMapping",NA
"49",1601664943586,2,"02/10/2020 20:55:43","BLIND",8400491,NA,"complete",NA,"5f776d0a89e29413cd7a7378","computer","Desktop or Laptop","Windows 10","Chrome 85.0.4183.121","1920x1080","1920x947","PictureMapping","PictureMapping","PictureMapping",9,"1",7,"Test","buttonA","response_text_area",40423.9,NA,NA,"vYe",NA,"MuziekPictureMapping",NA
"5",1601662677152,2,"02/10/2020 20:17:57","BLIND",8400491,NA,"complete",NA,"5f776d0a89e29413cd7a7378","computer","Desktop or Laptop","Windows 10","Chrome 85.0.4183.121","1920x1080","1920x947","PictureMapping","PictureMapping","PictureMapping",1,"1",4,"PictureMapping","advancementZone","response_text_entry",40423.9,NA,NA,"3",NA,"MetroPictureMapping",NA
"50",1601664943587,2,"02/10/2020 20:55:43","BLIND",8400491,NA,"complete",NA,"5f776d0a89e29413cd7a7378","computer","Desktop or Laptop","Windows 10","Chrome 85.0.4183.121","1920x1080","1920x947","PictureMapping","PictureMapping","PictureMapping",9,"1",7,"Test","buttonB","continue_button",40423.9,NA,NA,"",NA,"MuziekPictureMapping",NA
"51",1601664944679,2,"02/10/2020 20:55:44","BLIND",8400491,NA,"complete",NA,"5f776d0a89e29413cd7a7378","computer","Desktop or Laptop","Windows 10","Chrome 85.0.4183.121","1920x1080","1920x947","PictureMapping","PictureMapping","PictureMapping",10,"5",1,"Screen 1","advancementZone","continue_button",40423.9,NA,NA,"",NA,"ReadyForNextTextScreen",NA
"52",1601664960173,2,"02/10/2020 20:56:00","BLIND",8400491,NA,"complete",NA,"5f776d0a89e29413cd7a7378","computer","Desktop or Laptop","Windows 10","Chrome 85.0.4183.121","1920x1080","1920x947","PictureMapping","PictureMapping","PictureMapping",5,"1",1,"Text","advancementZone","continue_button",40423.9,NA,NA,"",NA,"SuezPictureMapping",NA
"53",1601664961335,2,"02/10/2020 20:56:01","BLIND",8400491,NA,"complete",NA,"5f776d0a89e29413cd7a7378","computer","Desktop or Laptop","Windows 10","Chrome 85.0.4183.121","1920x1080","1920x947","PictureMapping","PictureMapping","PictureMapping",5,"1",2,"JoL1","One","response_button_text",40423.9,NA,NA,"2",1,"SuezPictureMapping",NA
"54",1601664962789,2,"02/10/2020 20:56:02","BLIND",8400491,NA,"complete",NA,"5f776d0a89e29413cd7a7378","computer","Desktop or Laptop","Windows 10","Chrome 85.0.4183.121","1920x1080","1920x947","PictureMapping","PictureMapping","PictureMapping",5,"1",3,"IntroPictureMapping","advancementZone","continue_keyboard",40423.9,NA,NA,"",NA,"SuezPictureMapping",NA
"55",1601664984531,2,"02/10/2020 20:56:24","BLIND",8400491,NA,"complete",NA,"5f776d0a89e29413cd7a7378","computer","Desktop or Laptop","Windows 10","Chrome 85.0.4183.121","1920x1080","1920x947","PictureMapping","PictureMapping","PictureMapping",5,"1",4,"PictureMapping","advancementZone","response_text_entry",40423.9,NA,NA,"4",NA,"SuezPictureMapping",NA
"56",1601664984532,2,"02/10/2020 20:56:24","BLIND",8400491,NA,"complete",NA,"5f776d0a89e29413cd7a7378","computer","Desktop or Laptop","Windows 10","Chrome 85.0.4183.121","1920x1080","1920x947","PictureMapping","PictureMapping","PictureMapping",5,"1",4,"PictureMapping","Zone1","continue_button",40423.9,NA,NA,"",NA,"SuezPictureMapping",NA
"57",1601664986712,2,"02/10/2020 20:56:26","BLIND",8400491,NA,"complete",NA,"5f776d0a89e29413cd7a7378","computer","Desktop or Laptop","Windows 10","Chrome 85.0.4183.121","1920x1080","1920x947","PictureMapping","PictureMapping","PictureMapping",5,"1",5,"JoL2","One","response_button_text",40423.9,NA,NA,"2",1,"SuezPictureMapping",NA
"58",1601664987689,2,"02/10/2020 20:56:27","BLIND",8400491,NA,"complete",NA,"5f776d0a89e29413cd7a7378","computer","Desktop or Laptop","Windows 10","Chrome 85.0.4183.121","1920x1080","1920x947","PictureMapping","PictureMapping","PictureMapping",5,"1",6,"InstructieToets","advancementZone","continue_button",40423.9,NA,NA,"",NA,"SuezPictureMapping",NA
"59",1601665023699,2,"02/10/2020 20:57:03","BLIND",8400491,NA,"complete",NA,"5f776d0a89e29413cd7a7378","computer","Desktop or Laptop","Windows 10","Chrome 85.0.4183.121","1920x1080","1920x947","PictureMapping","PictureMapping","PictureMapping",5,"1",7,"Test","buttonA","response_text_area",40423.9,NA,NA,"iOLGU",NA,"SuezPictureMapping",NA
"6",1601662677153,2,"02/10/2020 20:17:57","BLIND",8400491,NA,"complete",NA,"5f776d0a89e29413cd7a7378","computer","Desktop or Laptop","Windows 10","Chrome 85.0.4183.121","1920x1080","1920x947","PictureMapping","PictureMapping","PictureMapping",1,"1",4,"PictureMapping","Zone1","continue_button",40423.9,NA,NA,"",NA,"MetroPictureMapping",NA
"60",1601665023699,2,"02/10/2020 20:57:03","BLIND",8400491,NA,"complete",NA,"5f776d0a89e29413cd7a7378","computer","Desktop or Laptop","Windows 10","Chrome 85.0.4183.121","1920x1080","1920x947","PictureMapping","PictureMapping","PictureMapping",5,"1",7,"Test","buttonB","continue_button",40423.9,NA,NA,"",NA,"SuezPictureMapping",NA
"61",1601665023701,2,"02/10/2020 20:57:03","BLIND",8400491,NA,"complete",NA,"5f776d0a89e29413cd7a7378","computer","Desktop or Laptop","Windows 10","Chrome 85.0.4183.121","1920x1080","1920x947","PictureMapping","PictureMapping","",NA,"END TASK",NA,"","","",2449340,NA,NA,"",NA,"",NA
"7",1601662679379,2,"02/10/2020 20:17:59","BLIND",8400491,NA,"complete",NA,"5f776d0a89e29413cd7a7378","computer","Desktop or Laptop","Windows 10","Chrome 85.0.4183.121","1920x1080","1920x947","PictureMapping","PictureMapping","PictureMapping",1,"1",5,"JoL2","Three","response_button_text",40423.9,NA,NA,"2",1,"MetroPictureMapping",NA
"8",1601662681521,2,"02/10/2020 20:18:01","BLIND",8400491,NA,"complete",NA,"5f776d0a89e29413cd7a7378","computer","Desktop or Laptop","Windows 10","Chrome 85.0.4183.121","1920x1080","1920x947","PictureMapping","PictureMapping","PictureMapping",1,"1",6,"InstructieToets","advancementZone","continue_button",40423.9,NA,NA,"",NA,"MetroPictureMapping",NA
"9",1601662892545,2,"02/10/2020 20:21:32","BLIND",8400491,NA,"complete",NA,"5f776d0a89e29413cd7a7378","computer","Desktop or Laptop","Windows 10","Chrome 85.0.4183.121","1920x1080","1920x947","PictureMapping","PictureMapping","PictureMapping",1,"1",7,"Test","buttonA","response_text_area",40423.9,NA,NA,"mFUjPItZS",NA,"MetroPictureMapping",NA
"END OF FILE",NA,NA,"","",NA,NA,"",NA,"","","","","","","","","","",NA,"",NA,"","","",40423.9,NA,NA,"",NA,"",NA
"END OF FILE",NA,NA,"","",NA,NA,"",NA,"","","","","","","","","","",NA,"",NA,"","","",NA,NA,NA,"",NA,"",NA
