"Event_Index","Local_Timestamp","Local_Timezone","Local_Date","Participant_Public_ID","Participant_Private_ID","Participant_Starting_Group","Participant_Status","Participant_Completion_Code","Participant_External_Session_ID","Participant_Device_Type","Participant_Device","Participant_OS","Participant_Browser","Participant_Monitor_Size","Participant_Viewport_Size","randomiser_81rl","Spreadsheet","Spreadsheet_Name","Spreadsheet_Row","Trial_Number","Screen_Number","Screen_Name","Zone_Name","Zone_Type","Reaction_Time","Reaction_Onset","Response_Type","Response","Attempt","display","Diagram_Box_Require_Response"
"1",1604079018835,1,"30/10/2020 18:30:18","BLIND",1984662,NA,"complete",NA,"5f9c4bc0ef75c70c0ab56b92","computer","Desktop or Laptop","Windows 10","Chrome 86.0.4240.111","1280x720","1280x610","FeedbackOnly","FeedbackOnly","",NA,"BEGIN TASK",NA,"","","",NA,NA,NA,"",NA,"",NA
"10",1604079250560,1,"30/10/2020 18:34:10","BLIND",1984662,NA,"complete",NA,"5f9c4bc0ef75c70c0ab56b92","computer","Desktop or Laptop","Windows 10","Chrome 86.0.4240.111","1280x720","1280x610","FeedbackOnly","FeedbackOnly","FeedbackOnly",1,"1",1,"Text","advancementZone","continue_button",21264.32,NA,NA,"",NA,"MetroFeedbackOnly",NA
"11",1604079252537,1,"30/10/2020 18:34:12","BLIND",1984662,NA,"complete",NA,"5f9c4bc0ef75c70c0ab56b92","computer","Desktop or Laptop","Windows 10","Chrome 86.0.4240.111","1280x720","1280x610","FeedbackOnly","FeedbackOnly","FeedbackOnly",1,"1",2,"JoL1","Three","response_button_text",21264.32,NA,NA,"1",1,"MetroFeedbackOnly",NA
"12",1604079258750,1,"30/10/2020 18:34:18","BLIND",1984662,NA,"complete",NA,"5f9c4bc0ef75c70c0ab56b92","computer","Desktop or Laptop","Windows 10","Chrome 86.0.4240.111","1280x720","1280x610","FeedbackOnly","FeedbackOnly","FeedbackOnly",1,"1",3,"Feedback","Zone1","continue_button",21264.32,NA,NA,"",NA,"MetroFeedbackOnly",NA
"13",1604079261835,1,"30/10/2020 18:34:21","BLIND",1984662,NA,"complete",NA,"5f9c4bc0ef75c70c0ab56b92","computer","Desktop or Laptop","Windows 10","Chrome 86.0.4240.111","1280x720","1280x610","FeedbackOnly","FeedbackOnly","FeedbackOnly",1,"1",4,"JoL2","Three","response_button_text",21264.32,NA,NA,"1",1,"MetroFeedbackOnly",NA
"14",1604079262698,1,"30/10/2020 18:34:22","BLIND",1984662,NA,"complete",NA,"5f9c4bc0ef75c70c0ab56b92","computer","Desktop or Laptop","Windows 10","Chrome 86.0.4240.111","1280x720","1280x610","FeedbackOnly","FeedbackOnly","FeedbackOnly",1,"1",5,"InstructieToets","advancementZone","continue_button",21264.32,NA,NA,"",NA,"MetroFeedbackOnly",NA
"15",1604079309654,1,"30/10/2020 18:35:09","BLIND",1984662,NA,"complete",NA,"5f9c4bc0ef75c70c0ab56b92","computer","Desktop or Laptop","Windows 10","Chrome 86.0.4240.111","1280x720","1280x610","FeedbackOnly","FeedbackOnly","FeedbackOnly",1,"1",6,"Test","buttonA","response_text_area",21264.32,NA,NA,"kJibZHOAbW",NA,"MetroFeedbackOnly",NA
"16",1604079309658,1,"30/10/2020 18:35:09","BLIND",1984662,NA,"complete",NA,"5f9c4bc0ef75c70c0ab56b92","computer","Desktop or Laptop","Windows 10","Chrome 86.0.4240.111","1280x720","1280x610","FeedbackOnly","FeedbackOnly","FeedbackOnly",1,"1",6,"Test","buttonB","continue_button",21264.32,NA,NA,"",NA,"MetroFeedbackOnly",NA
"17",1604079312125,1,"30/10/2020 18:35:12","BLIND",1984662,NA,"complete",NA,"5f9c4bc0ef75c70c0ab56b92","computer","Desktop or Laptop","Windows 10","Chrome 86.0.4240.111","1280x720","1280x610","FeedbackOnly","FeedbackOnly","FeedbackOnly",4,"2",1,"ReadyForNext","advancementZone","continue_button",21264.32,NA,NA,"",NA,"ReadyForNextTextScreen",NA
"18",1604079343250,1,"30/10/2020 18:35:43","BLIND",1984662,NA,"complete",NA,"5f9c4bc0ef75c70c0ab56b92","computer","Desktop or Laptop","Windows 10","Chrome 86.0.4240.111","1280x720","1280x610","FeedbackOnly","FeedbackOnly","FeedbackOnly",7,"1",1,"Text","advancementZone","continue_button",21264.32,NA,NA,"",NA,"MuziekFeedbackOnly",NA
"19",1604079344596,1,"30/10/2020 18:35:44","BLIND",1984662,NA,"complete",NA,"5f9c4bc0ef75c70c0ab56b92","computer","Desktop or Laptop","Windows 10","Chrome 86.0.4240.111","1280x720","1280x610","FeedbackOnly","FeedbackOnly","FeedbackOnly",7,"1",2,"JoL1","Four","response_button_text",21264.32,NA,NA,"1",1,"MuziekFeedbackOnly",NA
"2",1604079075981,1,"30/10/2020 18:31:15","BLIND",1984662,NA,"complete",NA,"5f9c4bc0ef75c70c0ab56b92","computer","Desktop or Laptop","Windows 10","Chrome 86.0.4240.111","1280x720","1280x610","FeedbackOnly","FeedbackOnly","FeedbackOnly",11,"1",1,"Text","advancementZone","continue_button",21264.32,NA,NA,"",NA,"SuezFeedbackOnly",NA
"20",1604079349892,1,"30/10/2020 18:35:49","BLIND",1984662,NA,"complete",NA,"5f9c4bc0ef75c70c0ab56b92","computer","Desktop or Laptop","Windows 10","Chrome 86.0.4240.111","1280x720","1280x610","FeedbackOnly","FeedbackOnly","FeedbackOnly",7,"1",3,"Feedback","Zone1","continue_button",21264.32,NA,NA,"",NA,"MuziekFeedbackOnly",NA
"21",1604079350899,1,"30/10/2020 18:35:50","BLIND",1984662,NA,"complete",NA,"5f9c4bc0ef75c70c0ab56b92","computer","Desktop or Laptop","Windows 10","Chrome 86.0.4240.111","1280x720","1280x610","FeedbackOnly","FeedbackOnly","FeedbackOnly",7,"1",4,"JoL2","Three","response_button_text",21264.32,NA,NA,"1",1,"MuziekFeedbackOnly",NA
"22",1604079352871,1,"30/10/2020 18:35:52","BLIND",1984662,NA,"complete",NA,"5f9c4bc0ef75c70c0ab56b92","computer","Desktop or Laptop","Windows 10","Chrome 86.0.4240.111","1280x720","1280x610","FeedbackOnly","FeedbackOnly","FeedbackOnly",7,"1",5,"InstructieToets","advancementZone","continue_button",21264.32,NA,NA,"",NA,"MuziekFeedbackOnly",NA
"23",1604079415621,1,"30/10/2020 18:36:55","BLIND",1984662,NA,"complete",NA,"5f9c4bc0ef75c70c0ab56b92","computer","Desktop or Laptop","Windows 10","Chrome 86.0.4240.111","1280x720","1280x610","FeedbackOnly","FeedbackOnly","FeedbackOnly",7,"1",6,"Test","buttonA","response_text_area",21264.32,NA,NA,"KYOwed34l1",NA,"MuziekFeedbackOnly",NA
"24",1604079415626,1,"30/10/2020 18:36:55","BLIND",1984662,NA,"complete",NA,"5f9c4bc0ef75c70c0ab56b92","computer","Desktop or Laptop","Windows 10","Chrome 86.0.4240.111","1280x720","1280x610","FeedbackOnly","FeedbackOnly","FeedbackOnly",7,"1",6,"Test","buttonB","continue_button",21264.32,NA,NA,"",NA,"MuziekFeedbackOnly",NA
"25",1604079416374,1,"30/10/2020 18:36:56","BLIND",1984662,NA,"complete",NA,"5f9c4bc0ef75c70c0ab56b92","computer","Desktop or Laptop","Windows 10","Chrome 86.0.4240.111","1280x720","1280x610","FeedbackOnly","FeedbackOnly","FeedbackOnly",6,"3",1,"ReadyForNext","advancementZone","continue_button",21264.32,NA,NA,"",NA,"ReadyForNextTextScreen",NA
"26",1604079454110,1,"30/10/2020 18:37:34","BLIND",1984662,NA,"complete",NA,"5f9c4bc0ef75c70c0ab56b92","computer","Desktop or Laptop","Windows 10","Chrome 86.0.4240.111","1280x720","1280x610","FeedbackOnly","FeedbackOnly","FeedbackOnly",9,"1",1,"Text","advancementZone","continue_button",21264.32,NA,NA,"",NA,"GeldFeedbackOnly",NA
"27",1604079462306,1,"30/10/2020 18:37:42","BLIND",1984662,NA,"complete",NA,"5f9c4bc0ef75c70c0ab56b92","computer","Desktop or Laptop","Windows 10","Chrome 86.0.4240.111","1280x720","1280x610","FeedbackOnly","FeedbackOnly","FeedbackOnly",9,"1",2,"JoL1","Three","response_button_text",21264.32,NA,NA,"1",1,"GeldFeedbackOnly",NA
"28",1604079478070,1,"30/10/2020 18:37:58","BLIND",1984662,NA,"complete",NA,"5f9c4bc0ef75c70c0ab56b92","computer","Desktop or Laptop","Windows 10","Chrome 86.0.4240.111","1280x720","1280x610","FeedbackOnly","FeedbackOnly","FeedbackOnly",9,"1",3,"Feedback","Zone1","continue_button",21264.32,NA,NA,"",NA,"GeldFeedbackOnly",NA
"29",1604079479402,1,"30/10/2020 18:37:59","BLIND",1984662,NA,"complete",NA,"5f9c4bc0ef75c70c0ab56b92","computer","Desktop or Laptop","Windows 10","Chrome 86.0.4240.111","1280x720","1280x610","FeedbackOnly","FeedbackOnly","FeedbackOnly",9,"1",4,"JoL2","One","response_button_text",21264.32,NA,NA,"1",1,"GeldFeedbackOnly",NA
"3",1604079080113,1,"30/10/2020 18:31:20","BLIND",1984662,NA,"complete",NA,"5f9c4bc0ef75c70c0ab56b92","computer","Desktop or Laptop","Windows 10","Chrome 86.0.4240.111","1280x720","1280x610","FeedbackOnly","FeedbackOnly","FeedbackOnly",11,"1",2,"JoL1","Four","response_button_text",21264.32,NA,NA,"1",1,"SuezFeedbackOnly",NA
"30",1604079481365,1,"30/10/2020 18:38:01","BLIND",1984662,NA,"complete",NA,"5f9c4bc0ef75c70c0ab56b92","computer","Desktop or Laptop","Windows 10","Chrome 86.0.4240.111","1280x720","1280x610","FeedbackOnly","FeedbackOnly","FeedbackOnly",9,"1",5,"ToetsInstructies","advancementZone","continue_button",21264.32,NA,NA,"",NA,"GeldFeedbackOnly",NA
"31",1604079523647,1,"30/10/2020 18:38:43","BLIND",1984662,NA,"complete",NA,"5f9c4bc0ef75c70c0ab56b92","computer","Desktop or Laptop","Windows 10","Chrome 86.0.4240.111","1280x720","1280x610","FeedbackOnly","FeedbackOnly","FeedbackOnly",9,"1",6,"Test","buttonA","response_text_area",21264.32,NA,NA,"TrdNCN",NA,"GeldFeedbackOnly",NA
"32",1604079523652,1,"30/10/2020 18:38:43","BLIND",1984662,NA,"complete",NA,"5f9c4bc0ef75c70c0ab56b92","computer","Desktop or Laptop","Windows 10","Chrome 86.0.4240.111","1280x720","1280x610","FeedbackOnly","FeedbackOnly","FeedbackOnly",9,"1",6,"Test","buttonB","continue_button",21264.32,NA,NA,"",NA,"GeldFeedbackOnly",NA
"33",1604079526862,1,"30/10/2020 18:38:46","BLIND",1984662,NA,"complete",NA,"5f9c4bc0ef75c70c0ab56b92","computer","Desktop or Laptop","Windows 10","Chrome 86.0.4240.111","1280x720","1280x610","FeedbackOnly","FeedbackOnly","FeedbackOnly",8,"4",1,"ReadyForNext","advancementZone","continue_button",21264.32,NA,NA,"",NA,"ReadyForNextTextScreen",NA
"34",1604079571411,1,"30/10/2020 18:39:31","BLIND",1984662,NA,"complete",NA,"5f9c4bc0ef75c70c0ab56b92","computer","Desktop or Laptop","Windows 10","Chrome 86.0.4240.111","1280x720","1280x610","FeedbackOnly","FeedbackOnly","FeedbackOnly",3,"1",1,"Text","advancementZone","continue_button",21264.32,NA,NA,"",NA,"BetonFeedbackOnly",NA
"35",1604079574102,1,"30/10/2020 18:39:34","BLIND",1984662,NA,"complete",NA,"5f9c4bc0ef75c70c0ab56b92","computer","Desktop or Laptop","Windows 10","Chrome 86.0.4240.111","1280x720","1280x610","FeedbackOnly","FeedbackOnly","FeedbackOnly",3,"1",2,"JoL1","Three","response_button_text",21264.32,NA,NA,"1",1,"BetonFeedbackOnly",NA
"36",1604079594774,1,"30/10/2020 18:39:54","BLIND",1984662,NA,"complete",NA,"5f9c4bc0ef75c70c0ab56b92","computer","Desktop or Laptop","Windows 10","Chrome 86.0.4240.111","1280x720","1280x610","FeedbackOnly","FeedbackOnly","FeedbackOnly",3,"1",3,"Feedback","Zone1","continue_button",21264.32,NA,NA,"",NA,"BetonFeedbackOnly",NA
"37",1604079596393,1,"30/10/2020 18:39:56","BLIND",1984662,NA,"complete",NA,"5f9c4bc0ef75c70c0ab56b92","computer","Desktop or Laptop","Windows 10","Chrome 86.0.4240.111","1280x720","1280x610","FeedbackOnly","FeedbackOnly","FeedbackOnly",3,"1",4,"JoL2","Two","response_button_text",21264.32,NA,NA,"1",1,"BetonFeedbackOnly",NA
"38",1604079597745,1,"30/10/2020 18:39:57","BLIND",1984662,NA,"complete",NA,"5f9c4bc0ef75c70c0ab56b92","computer","Desktop or Laptop","Windows 10","Chrome 86.0.4240.111","1280x720","1280x610","FeedbackOnly","FeedbackOnly","FeedbackOnly",3,"1",5,"InstructieToets","advancementZone","continue_button",21264.32,NA,NA,"",NA,"BetonFeedbackOnly",NA
"39",1604079655360,1,"30/10/2020 18:40:55","BLIND",1984662,NA,"complete",NA,"5f9c4bc0ef75c70c0ab56b92","computer","Desktop or Laptop","Windows 10","Chrome 86.0.4240.111","1280x720","1280x610","FeedbackOnly","FeedbackOnly","FeedbackOnly",3,"1",6,"Test","buttonA","response_text_area",21264.32,NA,NA,"eyoisIToV",NA,"BetonFeedbackOnly",NA
"4",1604079089806,1,"30/10/2020 18:31:29","BLIND",1984662,NA,"complete",NA,"5f9c4bc0ef75c70c0ab56b92","computer","Desktop or Laptop","Windows 10","Chrome 86.0.4240.111","1280x720","1280x610","FeedbackOnly","FeedbackOnly","FeedbackOnly",11,"1",3,"Feedback","Zone1","continue_button",21264.32,NA,NA,"",NA,"SuezFeedbackOnly",NA
"40",1604079655364,1,"30/10/2020 18:40:55","BLIND",1984662,NA,"complete",NA,"5f9c4bc0ef75c70c0ab56b92","computer","Desktop or Laptop","Windows 10","Chrome 86.0.4240.111","1280x720","1280x610","FeedbackOnly","FeedbackOnly","FeedbackOnly",3,"1",6,"Test","buttonB","continue_button",21264.32,NA,NA,"",NA,"BetonFeedbackOnly",NA
"41",1604079656101,1,"30/10/2020 18:40:56","BLIND",1984662,NA,"complete",NA,"5f9c4bc0ef75c70c0ab56b92","computer","Desktop or Laptop","Windows 10","Chrome 86.0.4240.111","1280x720","1280x610","FeedbackOnly","FeedbackOnly","FeedbackOnly",10,"5",1,"ReadyForNext","advancementZone","continue_button",21264.32,NA,NA,"",NA,"ReadyForNextTextScreen",NA
"42",1604079702179,1,"30/10/2020 18:41:42","BLIND",1984662,NA,"complete",NA,"5f9c4bc0ef75c70c0ab56b92","computer","Desktop or Laptop","Windows 10","Chrome 86.0.4240.111","1280x720","1280x610","FeedbackOnly","FeedbackOnly","FeedbackOnly",5,"1",1,"Text","advancementZone","continue_button",21264.32,NA,NA,"",NA,"BotoxFeedbackOnly",NA
"43",1604079703367,1,"30/10/2020 18:41:43","BLIND",1984662,NA,"complete",NA,"5f9c4bc0ef75c70c0ab56b92","computer","Desktop or Laptop","Windows 10","Chrome 86.0.4240.111","1280x720","1280x610","FeedbackOnly","FeedbackOnly","FeedbackOnly",5,"1",2,"JoL1","Four","response_button_text",21264.32,NA,NA,"1",1,"BotoxFeedbackOnly",NA
"44",1604079716719,1,"30/10/2020 18:41:56","BLIND",1984662,NA,"complete",NA,"5f9c4bc0ef75c70c0ab56b92","computer","Desktop or Laptop","Windows 10","Chrome 86.0.4240.111","1280x720","1280x610","FeedbackOnly","FeedbackOnly","FeedbackOnly",5,"1",3,"Feedback","Zone1","continue_button",21264.32,NA,NA,"",NA,"BotoxFeedbackOnly",NA
"45",1604079718381,1,"30/10/2020 18:41:58","BLIND",1984662,NA,"complete",NA,"5f9c4bc0ef75c70c0ab56b92","computer","Desktop or Laptop","Windows 10","Chrome 86.0.4240.111","1280x720","1280x610","FeedbackOnly","FeedbackOnly","FeedbackOnly",5,"1",4,"JoL2","Four","response_button_text",21264.32,NA,NA,"1",1,"BotoxFeedbackOnly",NA
"46",1604079719791,1,"30/10/2020 18:41:59","BLIND",1984662,NA,"complete",NA,"5f9c4bc0ef75c70c0ab56b92","computer","Desktop or Laptop","Windows 10","Chrome 86.0.4240.111","1280x720","1280x610","FeedbackOnly","FeedbackOnly","FeedbackOnly",5,"1",5,"InstructieToets","advancementZone","continue_button",21264.32,NA,NA,"",NA,"BotoxFeedbackOnly",NA
"47",1604079774207,1,"30/10/2020 18:42:54","BLIND",1984662,NA,"complete",NA,"5f9c4bc0ef75c70c0ab56b92","computer","Desktop or Laptop","Windows 10","Chrome 86.0.4240.111","1280x720","1280x610","FeedbackOnly","FeedbackOnly","FeedbackOnly",5,"1",6,"Test","buttonA","response_text_area",21264.32,NA,NA,"e5jj95h",NA,"BotoxFeedbackOnly",NA
"48",1604079774212,1,"30/10/2020 18:42:54","BLIND",1984662,NA,"complete",NA,"5f9c4bc0ef75c70c0ab56b92","computer","Desktop or Laptop","Windows 10","Chrome 86.0.4240.111","1280x720","1280x610","FeedbackOnly","FeedbackOnly","FeedbackOnly",5,"1",6,"Test","buttonB","continue_button",21264.32,NA,NA,"",NA,"BotoxFeedbackOnly",NA
"49",1604079774217,1,"30/10/2020 18:42:54","BLIND",1984662,NA,"complete",NA,"5f9c4bc0ef75c70c0ab56b92","computer","Desktop or Laptop","Windows 10","Chrome 86.0.4240.111","1280x720","1280x610","FeedbackOnly","FeedbackOnly","",NA,"END TASK",NA,"","","",755382,NA,NA,"",NA,"",NA
"5",1604079091596,1,"30/10/2020 18:31:31","BLIND",1984662,NA,"complete",NA,"5f9c4bc0ef75c70c0ab56b92","computer","Desktop or Laptop","Windows 10","Chrome 86.0.4240.111","1280x720","1280x610","FeedbackOnly","FeedbackOnly","FeedbackOnly",11,"1",4,"JoL2","Three","response_button_text",21264.32,NA,NA,"1",1,"SuezFeedbackOnly",NA
"6",1604079093215,1,"30/10/2020 18:31:33","BLIND",1984662,NA,"complete",NA,"5f9c4bc0ef75c70c0ab56b92","computer","Desktop or Laptop","Windows 10","Chrome 86.0.4240.111","1280x720","1280x610","FeedbackOnly","FeedbackOnly","FeedbackOnly",11,"1",5,"InstructieToets","advancementZone","continue_button",21264.32,NA,NA,"",NA,"SuezFeedbackOnly",NA
"7",1604079192298,1,"30/10/2020 18:33:12","BLIND",1984662,NA,"complete",NA,"5f9c4bc0ef75c70c0ab56b92","computer","Desktop or Laptop","Windows 10","Chrome 86.0.4240.111","1280x720","1280x610","FeedbackOnly","FeedbackOnly","FeedbackOnly",11,"1",6,"Test","buttonA","response_text_area",21264.32,NA,NA,"pTABxwASPZ",NA,"SuezFeedbackOnly",NA
"8",1604079192301,1,"30/10/2020 18:33:12","BLIND",1984662,NA,"complete",NA,"5f9c4bc0ef75c70c0ab56b92","computer","Desktop or Laptop","Windows 10","Chrome 86.0.4240.111","1280x720","1280x610","FeedbackOnly","FeedbackOnly","FeedbackOnly",11,"1",6,"Test","buttonB","continue_button",21264.32,NA,NA,"",NA,"SuezFeedbackOnly",NA
"9",1604079195499,1,"30/10/2020 18:33:15","BLIND",1984662,NA,"complete",NA,"5f9c4bc0ef75c70c0ab56b92","computer","Desktop or Laptop","Windows 10","Chrome 86.0.4240.111","1280x720","1280x610","FeedbackOnly","FeedbackOnly","FeedbackOnly",2,"1",1,"ReadyForNext","advancementZone","continue_button",21264.32,NA,NA,"",NA,"ReadyForNextTextScreen",NA
"1",1604072442828,1,"30/10/2020 16:40:42","BLIND",2565331,NA,"complete",NA,"5f9c330be8f0ea085bcf8b71","computer","Desktop or Laptop","Windows 10","Chrome 86.0.4240.111","1920x1080","1920x969","FeedbackOnly","FeedbackOnly","",NA,"BEGIN TASK",NA,"","","",NA,NA,NA,"",NA,"",NA
"10",1604072552424,1,"30/10/2020 16:42:32","BLIND",2565331,NA,"complete",NA,"5f9c330be8f0ea085bcf8b71","computer","Desktop or Laptop","Windows 10","Chrome 86.0.4240.111","1920x1080","1920x969","FeedbackOnly","FeedbackOnly","FeedbackOnly",3,"1",1,"Text","advancementZone","continue_button",21264.32,NA,NA,"",NA,"BetonFeedbackOnly",NA
"11",1604072554985,1,"30/10/2020 16:42:34","BLIND",2565331,NA,"complete",NA,"5f9c330be8f0ea085bcf8b71","computer","Desktop or Laptop","Windows 10","Chrome 86.0.4240.111","1920x1080","1920x969","FeedbackOnly","FeedbackOnly","FeedbackOnly",3,"1",2,"JoL1","Two","response_button_text",21264.32,NA,NA,"1",1,"BetonFeedbackOnly",NA
"12",1604072568585,1,"30/10/2020 16:42:48","BLIND",2565331,NA,"complete",NA,"5f9c330be8f0ea085bcf8b71","computer","Desktop or Laptop","Windows 10","Chrome 86.0.4240.111","1920x1080","1920x969","FeedbackOnly","FeedbackOnly","FeedbackOnly",3,"1",3,"Feedback","Zone1","continue_button",21264.32,NA,NA,"",NA,"BetonFeedbackOnly",NA
"13",1604072570615,1,"30/10/2020 16:42:50","BLIND",2565331,NA,"complete",NA,"5f9c330be8f0ea085bcf8b71","computer","Desktop or Laptop","Windows 10","Chrome 86.0.4240.111","1920x1080","1920x969","FeedbackOnly","FeedbackOnly","FeedbackOnly",3,"1",4,"JoL2","Three","response_button_text",21264.32,NA,NA,"1",1,"BetonFeedbackOnly",NA
"14",1604072572834,1,"30/10/2020 16:42:52","BLIND",2565331,NA,"complete",NA,"5f9c330be8f0ea085bcf8b71","computer","Desktop or Laptop","Windows 10","Chrome 86.0.4240.111","1920x1080","1920x969","FeedbackOnly","FeedbackOnly","FeedbackOnly",3,"1",5,"InstructieToets","advancementZone","continue_button",21264.32,NA,NA,"",NA,"BetonFeedbackOnly",NA
"15",1604072653922,1,"30/10/2020 16:44:13","BLIND",2565331,NA,"complete",NA,"5f9c330be8f0ea085bcf8b71","computer","Desktop or Laptop","Windows 10","Chrome 86.0.4240.111","1920x1080","1920x969","FeedbackOnly","FeedbackOnly","FeedbackOnly",3,"1",6,"Test","buttonA","response_text_area",21264.32,NA,NA,"c16RRdb0s",NA,"BetonFeedbackOnly",NA
"16",1604072653927,1,"30/10/2020 16:44:13","BLIND",2565331,NA,"complete",NA,"5f9c330be8f0ea085bcf8b71","computer","Desktop or Laptop","Windows 10","Chrome 86.0.4240.111","1920x1080","1920x969","FeedbackOnly","FeedbackOnly","FeedbackOnly",3,"1",6,"Test","buttonB","continue_button",21264.32,NA,NA,"",NA,"BetonFeedbackOnly",NA
"17",1604072656941,1,"30/10/2020 16:44:16","BLIND",2565331,NA,"complete",NA,"5f9c330be8f0ea085bcf8b71","computer","Desktop or Laptop","Windows 10","Chrome 86.0.4240.111","1920x1080","1920x969","FeedbackOnly","FeedbackOnly","FeedbackOnly",4,"2",1,"ReadyForNext","advancementZone","continue_button",21264.32,NA,NA,"",NA,"ReadyForNextTextScreen",NA
"18",1604072897670,1,"30/10/2020 16:48:17","BLIND",2565331,NA,"complete",NA,"5f9c330be8f0ea085bcf8b71","computer","Desktop or Laptop","Windows 10","Chrome 86.0.4240.111","1920x1080","1920x969","FeedbackOnly","FeedbackOnly","FeedbackOnly",9,"1",1,"Text","advancementZone","continue_button",21264.32,NA,NA,"",NA,"GeldFeedbackOnly",NA
"19",1604072900512,1,"30/10/2020 16:48:20","BLIND",2565331,NA,"complete",NA,"5f9c330be8f0ea085bcf8b71","computer","Desktop or Laptop","Windows 10","Chrome 86.0.4240.111","1920x1080","1920x969","FeedbackOnly","FeedbackOnly","FeedbackOnly",9,"1",2,"JoL1","Two","response_button_text",21264.32,NA,NA,"1",1,"GeldFeedbackOnly",NA
"2",1604072455941,1,"30/10/2020 16:40:55","BLIND",2565331,NA,"complete",NA,"5f9c330be8f0ea085bcf8b71","computer","Desktop or Laptop","Windows 10","Chrome 86.0.4240.111","1920x1080","1920x969","FeedbackOnly","FeedbackOnly","FeedbackOnly",5,"1",1,"Text","advancementZone","continue_button",21264.32,NA,NA,"",NA,"BotoxFeedbackOnly",NA
"20",1604073323648,1,"30/10/2020 16:55:23","BLIND",2565331,NA,"complete",NA,"5f9c330be8f0ea085bcf8b71","computer","Desktop or Laptop","Windows 10","Chrome 86.0.4240.111","1920x1080","1920x969","FeedbackOnly","FeedbackOnly","FeedbackOnly",9,"1",3,"Feedback","Zone1","continue_button",21264.32,NA,NA,"",NA,"GeldFeedbackOnly",NA
"21",1604073324094,1,"30/10/2020 16:55:24","BLIND",2565331,NA,"complete",NA,"5f9c330be8f0ea085bcf8b71","computer","Desktop or Laptop","Windows 10","Chrome 86.0.4240.111","1920x1080","1920x969","FeedbackOnly","FeedbackOnly","FeedbackOnly",9,"1",4,"JoL2","Three","response_button_text",21264.32,NA,NA,"1",1,"GeldFeedbackOnly",NA
"22",1604073324773,1,"30/10/2020 16:55:24","BLIND",2565331,NA,"complete",NA,"5f9c330be8f0ea085bcf8b71","computer","Desktop or Laptop","Windows 10","Chrome 86.0.4240.111","1920x1080","1920x969","FeedbackOnly","FeedbackOnly","FeedbackOnly",9,"1",5,"ToetsInstructies","advancementZone","continue_button",21264.32,NA,NA,"",NA,"GeldFeedbackOnly",NA
"23",1604073352713,1,"30/10/2020 16:55:52","BLIND",2565331,NA,"complete",NA,"5f9c330be8f0ea085bcf8b71","computer","Desktop or Laptop","Windows 10","Chrome 86.0.4240.111","1920x1080","1920x969","FeedbackOnly","FeedbackOnly","FeedbackOnly",9,"1",6,"Test","buttonA","response_text_area",21264.32,NA,NA,"nctdz781Y",NA,"GeldFeedbackOnly",NA
"24",1604073352715,1,"30/10/2020 16:55:52","BLIND",2565331,NA,"complete",NA,"5f9c330be8f0ea085bcf8b71","computer","Desktop or Laptop","Windows 10","Chrome 86.0.4240.111","1920x1080","1920x969","FeedbackOnly","FeedbackOnly","FeedbackOnly",9,"1",6,"Test","buttonB","continue_button",21264.32,NA,NA,"",NA,"GeldFeedbackOnly",NA
"25",1604073522781,1,"30/10/2020 16:58:42","BLIND",2565331,NA,"complete",NA,"5f9c330be8f0ea085bcf8b71","computer","Desktop or Laptop","Windows 10","Chrome 86.0.4240.111","1920x1080","1920x969","FeedbackOnly","FeedbackOnly","FeedbackOnly",6,"3",1,"ReadyForNext","advancementZone","continue_button",21264.32,NA,NA,"",NA,"ReadyForNextTextScreen",NA
"26",1604073524514,1,"30/10/2020 16:58:44","BLIND",2565331,NA,"complete",NA,"5f9c330be8f0ea085bcf8b71","computer","Desktop or Laptop","Windows 10","Chrome 86.0.4240.111","1920x1080","1920x969","FeedbackOnly","FeedbackOnly","FeedbackOnly",11,"1",1,"Text","advancementZone","continue_button",21264.32,NA,NA,"",NA,"SuezFeedbackOnly",NA
"27",1604073525918,1,"30/10/2020 16:58:45","BLIND",2565331,NA,"complete",NA,"5f9c330be8f0ea085bcf8b71","computer","Desktop or Laptop","Windows 10","Chrome 86.0.4240.111","1920x1080","1920x969","FeedbackOnly","FeedbackOnly","FeedbackOnly",11,"1",2,"JoL1","Two","response_button_text",21264.32,NA,NA,"1",1,"SuezFeedbackOnly",NA
"28",1604073526750,1,"30/10/2020 16:58:46","BLIND",2565331,NA,"complete",NA,"5f9c330be8f0ea085bcf8b71","computer","Desktop or Laptop","Windows 10","Chrome 86.0.4240.111","1920x1080","1920x969","FeedbackOnly","FeedbackOnly","FeedbackOnly",11,"1",3,"Feedback","Zone1","continue_button",21264.32,NA,NA,"",NA,"SuezFeedbackOnly",NA
"29",1604073527250,1,"30/10/2020 16:58:47","BLIND",2565331,NA,"complete",NA,"5f9c330be8f0ea085bcf8b71","computer","Desktop or Laptop","Windows 10","Chrome 86.0.4240.111","1920x1080","1920x969","FeedbackOnly","FeedbackOnly","FeedbackOnly",11,"1",4,"JoL2","Three","response_button_text",21264.32,NA,NA,"1",1,"SuezFeedbackOnly",NA
"3",1604072456828,1,"30/10/2020 16:40:56","BLIND",2565331,NA,"complete",NA,"5f9c330be8f0ea085bcf8b71","computer","Desktop or Laptop","Windows 10","Chrome 86.0.4240.111","1920x1080","1920x969","FeedbackOnly","FeedbackOnly","FeedbackOnly",5,"1",2,"JoL1","Three","response_button_text",21264.32,NA,NA,"1",1,"BotoxFeedbackOnly",NA
"30",1604073529531,1,"30/10/2020 16:58:49","BLIND",2565331,NA,"complete",NA,"5f9c330be8f0ea085bcf8b71","computer","Desktop or Laptop","Windows 10","Chrome 86.0.4240.111","1920x1080","1920x969","FeedbackOnly","FeedbackOnly","FeedbackOnly",11,"1",5,"InstructieToets","advancementZone","continue_button",21264.32,NA,NA,"",NA,"SuezFeedbackOnly",NA
"31",1604073533740,1,"30/10/2020 16:58:53","BLIND",2565331,NA,"complete",NA,"5f9c330be8f0ea085bcf8b71","computer","Desktop or Laptop","Windows 10","Chrome 86.0.4240.111","1920x1080","1920x969","FeedbackOnly","FeedbackOnly","FeedbackOnly",11,"1",6,"Test","buttonA","response_text_area",21264.32,NA,NA,"?",NA,"SuezFeedbackOnly",NA
"32",1604073533741,1,"30/10/2020 16:58:53","BLIND",2565331,NA,"complete",NA,"5f9c330be8f0ea085bcf8b71","computer","Desktop or Laptop","Windows 10","Chrome 86.0.4240.111","1920x1080","1920x969","FeedbackOnly","FeedbackOnly","FeedbackOnly",11,"1",6,"Test","buttonB","continue_button",21264.32,NA,NA,"",NA,"SuezFeedbackOnly",NA
"33",1604073534796,1,"30/10/2020 16:58:54","BLIND",2565331,NA,"complete",NA,"5f9c330be8f0ea085bcf8b71","computer","Desktop or Laptop","Windows 10","Chrome 86.0.4240.111","1920x1080","1920x969","FeedbackOnly","FeedbackOnly","FeedbackOnly",8,"4",1,"ReadyForNext","advancementZone","continue_button",21264.32,NA,NA,"",NA,"ReadyForNextTextScreen",NA
"34",1604073537076,1,"30/10/2020 16:58:57","BLIND",2565331,NA,"complete",NA,"5f9c330be8f0ea085bcf8b71","computer","Desktop or Laptop","Windows 10","Chrome 86.0.4240.111","1920x1080","1920x969","FeedbackOnly","FeedbackOnly","FeedbackOnly",7,"1",1,"Text","advancementZone","continue_button",21264.32,NA,NA,"",NA,"MuziekFeedbackOnly",NA
"35",1604073538168,1,"30/10/2020 16:58:58","BLIND",2565331,NA,"complete",NA,"5f9c330be8f0ea085bcf8b71","computer","Desktop or Laptop","Windows 10","Chrome 86.0.4240.111","1920x1080","1920x969","FeedbackOnly","FeedbackOnly","FeedbackOnly",7,"1",2,"JoL1","Three","response_button_text",21264.32,NA,NA,"1",1,"MuziekFeedbackOnly",NA
"36",1604073547752,1,"30/10/2020 16:59:07","BLIND",2565331,NA,"complete",NA,"5f9c330be8f0ea085bcf8b71","computer","Desktop or Laptop","Windows 10","Chrome 86.0.4240.111","1920x1080","1920x969","FeedbackOnly","FeedbackOnly","FeedbackOnly",7,"1",3,"Feedback","Zone1","continue_button",21264.32,NA,NA,"",NA,"MuziekFeedbackOnly",NA
"37",1604073548606,1,"30/10/2020 16:59:08","BLIND",2565331,NA,"complete",NA,"5f9c330be8f0ea085bcf8b71","computer","Desktop or Laptop","Windows 10","Chrome 86.0.4240.111","1920x1080","1920x969","FeedbackOnly","FeedbackOnly","FeedbackOnly",7,"1",4,"JoL2","Four","response_button_text",21264.32,NA,NA,"1",1,"MuziekFeedbackOnly",NA
"38",1604073550051,1,"30/10/2020 16:59:10","BLIND",2565331,NA,"complete",NA,"5f9c330be8f0ea085bcf8b71","computer","Desktop or Laptop","Windows 10","Chrome 86.0.4240.111","1920x1080","1920x969","FeedbackOnly","FeedbackOnly","FeedbackOnly",7,"1",5,"InstructieToets","advancementZone","continue_button",21264.32,NA,NA,"",NA,"MuziekFeedbackOnly",NA
"39",1604073588512,1,"30/10/2020 16:59:48","BLIND",2565331,NA,"complete",NA,"5f9c330be8f0ea085bcf8b71","computer","Desktop or Laptop","Windows 10","Chrome 86.0.4240.111","1920x1080","1920x969","FeedbackOnly","FeedbackOnly","FeedbackOnly",7,"1",6,"Test","buttonA","response_text_area",21264.32,NA,NA,"5mj",NA,"MuziekFeedbackOnly",NA
"4",1604072470538,1,"30/10/2020 16:41:10","BLIND",2565331,NA,"complete",NA,"5f9c330be8f0ea085bcf8b71","computer","Desktop or Laptop","Windows 10","Chrome 86.0.4240.111","1920x1080","1920x969","FeedbackOnly","FeedbackOnly","FeedbackOnly",5,"1",3,"Feedback","Zone1","continue_button",21264.32,NA,NA,"",NA,"BotoxFeedbackOnly",NA
"40",1604073588514,1,"30/10/2020 16:59:48","BLIND",2565331,NA,"complete",NA,"5f9c330be8f0ea085bcf8b71","computer","Desktop or Laptop","Windows 10","Chrome 86.0.4240.111","1920x1080","1920x969","FeedbackOnly","FeedbackOnly","FeedbackOnly",7,"1",6,"Test","buttonB","continue_button",21264.32,NA,NA,"",NA,"MuziekFeedbackOnly",NA
"41",1604073590092,1,"30/10/2020 16:59:50","BLIND",2565331,NA,"complete",NA,"5f9c330be8f0ea085bcf8b71","computer","Desktop or Laptop","Windows 10","Chrome 86.0.4240.111","1920x1080","1920x969","FeedbackOnly","FeedbackOnly","FeedbackOnly",10,"5",1,"ReadyForNext","advancementZone","continue_button",21264.32,NA,NA,"",NA,"ReadyForNextTextScreen",NA
"42",1604073591880,1,"30/10/2020 16:59:51","BLIND",2565331,NA,"complete",NA,"5f9c330be8f0ea085bcf8b71","computer","Desktop or Laptop","Windows 10","Chrome 86.0.4240.111","1920x1080","1920x969","FeedbackOnly","FeedbackOnly","FeedbackOnly",1,"1",1,"Text","advancementZone","continue_button",21264.32,NA,NA,"",NA,"MetroFeedbackOnly",NA
"43",1604073593209,1,"30/10/2020 16:59:53","BLIND",2565331,NA,"complete",NA,"5f9c330be8f0ea085bcf8b71","computer","Desktop or Laptop","Windows 10","Chrome 86.0.4240.111","1920x1080","1920x969","FeedbackOnly","FeedbackOnly","FeedbackOnly",1,"1",2,"JoL1","Three","response_button_text",21264.32,NA,NA,"1",1,"MetroFeedbackOnly",NA
"44",1604073607355,1,"30/10/2020 17:00:07","BLIND",2565331,NA,"complete",NA,"5f9c330be8f0ea085bcf8b71","computer","Desktop or Laptop","Windows 10","Chrome 86.0.4240.111","1920x1080","1920x969","FeedbackOnly","FeedbackOnly","FeedbackOnly",1,"1",3,"Feedback","Zone1","continue_button",21264.32,NA,NA,"",NA,"MetroFeedbackOnly",NA
"45",1604073609806,1,"30/10/2020 17:00:09","BLIND",2565331,NA,"complete",NA,"5f9c330be8f0ea085bcf8b71","computer","Desktop or Laptop","Windows 10","Chrome 86.0.4240.111","1920x1080","1920x969","FeedbackOnly","FeedbackOnly","FeedbackOnly",1,"1",4,"JoL2","Two","response_button_text",21264.32,NA,NA,"1",1,"MetroFeedbackOnly",NA
"46",1604073610649,1,"30/10/2020 17:00:10","BLIND",2565331,NA,"complete",NA,"5f9c330be8f0ea085bcf8b71","computer","Desktop or Laptop","Windows 10","Chrome 86.0.4240.111","1920x1080","1920x969","FeedbackOnly","FeedbackOnly","FeedbackOnly",1,"1",5,"InstructieToets","advancementZone","continue_button",21264.32,NA,NA,"",NA,"MetroFeedbackOnly",NA
"47",1604073634238,1,"30/10/2020 17:00:34","BLIND",2565331,NA,"complete",NA,"5f9c330be8f0ea085bcf8b71","computer","Desktop or Laptop","Windows 10","Chrome 86.0.4240.111","1920x1080","1920x969","FeedbackOnly","FeedbackOnly","FeedbackOnly",1,"1",6,"Test","buttonA","response_text_area",21264.32,NA,NA,"P6s2jkUN",NA,"MetroFeedbackOnly",NA
"48",1604073634240,1,"30/10/2020 17:00:34","BLIND",2565331,NA,"complete",NA,"5f9c330be8f0ea085bcf8b71","computer","Desktop or Laptop","Windows 10","Chrome 86.0.4240.111","1920x1080","1920x969","FeedbackOnly","FeedbackOnly","FeedbackOnly",1,"1",6,"Test","buttonB","continue_button",21264.32,NA,NA,"",NA,"MetroFeedbackOnly",NA
"49",1604073634243,1,"30/10/2020 17:00:34","BLIND",2565331,NA,"complete",NA,"5f9c330be8f0ea085bcf8b71","computer","Desktop or Laptop","Windows 10","Chrome 86.0.4240.111","1920x1080","1920x969","FeedbackOnly","FeedbackOnly","",NA,"END TASK",NA,"","","",1191415,NA,NA,"",NA,"",NA
"5",1604072471087,1,"30/10/2020 16:41:11","BLIND",2565331,NA,"complete",NA,"5f9c330be8f0ea085bcf8b71","computer","Desktop or Laptop","Windows 10","Chrome 86.0.4240.111","1920x1080","1920x969","FeedbackOnly","FeedbackOnly","FeedbackOnly",5,"1",4,"JoL2","Three","response_button_text",21264.32,NA,NA,"1",1,"BotoxFeedbackOnly",NA
"6",1604072472813,1,"30/10/2020 16:41:12","BLIND",2565331,NA,"complete",NA,"5f9c330be8f0ea085bcf8b71","computer","Desktop or Laptop","Windows 10","Chrome 86.0.4240.111","1920x1080","1920x969","FeedbackOnly","FeedbackOnly","FeedbackOnly",5,"1",5,"InstructieToets","advancementZone","continue_button",21264.32,NA,NA,"",NA,"BotoxFeedbackOnly",NA
"7",1604072547577,1,"30/10/2020 16:42:27","BLIND",2565331,NA,"complete",NA,"5f9c330be8f0ea085bcf8b71","computer","Desktop or Laptop","Windows 10","Chrome 86.0.4240.111","1920x1080","1920x969","FeedbackOnly","FeedbackOnly","FeedbackOnly",5,"1",6,"Test","buttonA","response_text_area",21264.32,NA,NA,"Pfxf",NA,"BotoxFeedbackOnly",NA
"8",1604072547580,1,"30/10/2020 16:42:27","BLIND",2565331,NA,"complete",NA,"5f9c330be8f0ea085bcf8b71","computer","Desktop or Laptop","Windows 10","Chrome 86.0.4240.111","1920x1080","1920x969","FeedbackOnly","FeedbackOnly","FeedbackOnly",5,"1",6,"Test","buttonB","continue_button",21264.32,NA,NA,"",NA,"BotoxFeedbackOnly",NA
"9",1604072550473,1,"30/10/2020 16:42:30","BLIND",2565331,NA,"complete",NA,"5f9c330be8f0ea085bcf8b71","computer","Desktop or Laptop","Windows 10","Chrome 86.0.4240.111","1920x1080","1920x969","FeedbackOnly","FeedbackOnly","FeedbackOnly",2,"1",1,"ReadyForNext","advancementZone","continue_button",21264.32,NA,NA,"",NA,"ReadyForNextTextScreen",NA
"1",1604071490362,1,"30/10/2020 16:24:50","BLIND",3112307,NA,"complete",NA,"5f9c2eee84865f085ddc80ab","computer","Desktop or Laptop","Windows 10","Chrome 86.0.4240.111","1920x1080","1920x937","FeedbackOnly","FeedbackOnly","",NA,"BEGIN TASK",NA,"","","",NA,NA,NA,"",NA,"",NA
"10",1604071806840,1,"30/10/2020 16:30:06","BLIND",3112307,NA,"complete",NA,"5f9c2eee84865f085ddc80ab","computer","Desktop or Laptop","Windows 10","Chrome 86.0.4240.111","1920x1080","1920x937","FeedbackOnly","FeedbackOnly","FeedbackOnly",7,"1",1,"Text","advancementZone","continue_button",21264.32,NA,NA,"",NA,"MuziekFeedbackOnly",NA
"11",1604071810298,1,"30/10/2020 16:30:10","BLIND",3112307,NA,"complete",NA,"5f9c2eee84865f085ddc80ab","computer","Desktop or Laptop","Windows 10","Chrome 86.0.4240.111","1920x1080","1920x937","FeedbackOnly","FeedbackOnly","FeedbackOnly",7,"1",2,"JoL1","Three","response_button_text",21264.32,NA,NA,"1",1,"MuziekFeedbackOnly",NA
"12",1604071815932,1,"30/10/2020 16:30:15","BLIND",3112307,NA,"complete",NA,"5f9c2eee84865f085ddc80ab","computer","Desktop or Laptop","Windows 10","Chrome 86.0.4240.111","1920x1080","1920x937","FeedbackOnly","FeedbackOnly","FeedbackOnly",7,"1",3,"Feedback","Zone1","continue_button",21264.32,NA,NA,"",NA,"MuziekFeedbackOnly",NA
"13",1604071817447,1,"30/10/2020 16:30:17","BLIND",3112307,NA,"complete",NA,"5f9c2eee84865f085ddc80ab","computer","Desktop or Laptop","Windows 10","Chrome 86.0.4240.111","1920x1080","1920x937","FeedbackOnly","FeedbackOnly","FeedbackOnly",7,"1",4,"JoL2","Three","response_button_text",21264.32,NA,NA,"1",1,"MuziekFeedbackOnly",NA
"14",1604071819202,1,"30/10/2020 16:30:19","BLIND",3112307,NA,"complete",NA,"5f9c2eee84865f085ddc80ab","computer","Desktop or Laptop","Windows 10","Chrome 86.0.4240.111","1920x1080","1920x937","FeedbackOnly","FeedbackOnly","FeedbackOnly",7,"1",5,"InstructieToets","advancementZone","continue_button",21264.32,NA,NA,"",NA,"MuziekFeedbackOnly",NA
"15",1604071926284,1,"30/10/2020 16:32:06","BLIND",3112307,NA,"complete",NA,"5f9c2eee84865f085ddc80ab","computer","Desktop or Laptop","Windows 10","Chrome 86.0.4240.111","1920x1080","1920x937","FeedbackOnly","FeedbackOnly","FeedbackOnly",7,"1",6,"Test","buttonA","response_text_area",21264.32,NA,NA,"npi",NA,"MuziekFeedbackOnly",NA
"16",1604071926285,1,"30/10/2020 16:32:06","BLIND",3112307,NA,"complete",NA,"5f9c2eee84865f085ddc80ab","computer","Desktop or Laptop","Windows 10","Chrome 86.0.4240.111","1920x1080","1920x937","FeedbackOnly","FeedbackOnly","FeedbackOnly",7,"1",6,"Test","buttonB","continue_button",21264.32,NA,NA,"",NA,"MuziekFeedbackOnly",NA
"17",1604071928958,1,"30/10/2020 16:32:08","BLIND",3112307,NA,"complete",NA,"5f9c2eee84865f085ddc80ab","computer","Desktop or Laptop","Windows 10","Chrome 86.0.4240.111","1920x1080","1920x937","FeedbackOnly","FeedbackOnly","FeedbackOnly",4,"2",1,"ReadyForNext","advancementZone","continue_button",21264.32,NA,NA,"",NA,"ReadyForNextTextScreen",NA
"18",1604071929018,1,"30/10/2020 16:32:09","BLIND",3112307,NA,"complete",NA,"5f9c2eee84865f085ddc80ab","computer","Desktop or Laptop","Windows 10","Chrome 86.0.4240.111","1920x1080","1920x937","FeedbackOnly","FeedbackOnly","FeedbackOnly",9,"1",1,"Text","advancementZone","continue_button",21264.32,NA,NA,"",NA,"GeldFeedbackOnly",NA
"19",1604071933559,1,"30/10/2020 16:32:13","BLIND",3112307,NA,"complete",NA,"5f9c2eee84865f085ddc80ab","computer","Desktop or Laptop","Windows 10","Chrome 86.0.4240.111","1920x1080","1920x937","FeedbackOnly","FeedbackOnly","FeedbackOnly",9,"1",2,"JoL1","Two","response_button_text",21264.32,NA,NA,"1",1,"GeldFeedbackOnly",NA
"2",1604071579340,1,"30/10/2020 16:26:19","BLIND",3112307,NA,"complete",NA,"5f9c2eee84865f085ddc80ab","computer","Desktop or Laptop","Windows 10","Chrome 86.0.4240.111","1920x1080","1920x937","FeedbackOnly","FeedbackOnly","FeedbackOnly",11,"1",1,"Text","advancementZone","continue_button",21264.32,NA,NA,"",NA,"SuezFeedbackOnly",NA
"20",1604071956108,1,"30/10/2020 16:32:36","BLIND",3112307,NA,"complete",NA,"5f9c2eee84865f085ddc80ab","computer","Desktop or Laptop","Windows 10","Chrome 86.0.4240.111","1920x1080","1920x937","FeedbackOnly","FeedbackOnly","FeedbackOnly",9,"1",3,"Feedback","Zone1","continue_button",21264.32,NA,NA,"",NA,"GeldFeedbackOnly",NA
"21",1604071958282,1,"30/10/2020 16:32:38","BLIND",3112307,NA,"complete",NA,"5f9c2eee84865f085ddc80ab","computer","Desktop or Laptop","Windows 10","Chrome 86.0.4240.111","1920x1080","1920x937","FeedbackOnly","FeedbackOnly","FeedbackOnly",9,"1",4,"JoL2","Two","response_button_text",21264.32,NA,NA,"1",1,"GeldFeedbackOnly",NA
"22",1604071960674,1,"30/10/2020 16:32:40","BLIND",3112307,NA,"complete",NA,"5f9c2eee84865f085ddc80ab","computer","Desktop or Laptop","Windows 10","Chrome 86.0.4240.111","1920x1080","1920x937","FeedbackOnly","FeedbackOnly","FeedbackOnly",9,"1",5,"ToetsInstructies","advancementZone","continue_button",21264.32,NA,NA,"",NA,"GeldFeedbackOnly",NA
"23",1604071970986,1,"30/10/2020 16:32:50","BLIND",3112307,NA,"complete",NA,"5f9c2eee84865f085ddc80ab","computer","Desktop or Laptop","Windows 10","Chrome 86.0.4240.111","1920x1080","1920x937","FeedbackOnly","FeedbackOnly","FeedbackOnly",9,"1",6,"Test","buttonA","response_text_area",21264.32,NA,NA,"?",NA,"GeldFeedbackOnly",NA
"24",1604071970987,1,"30/10/2020 16:32:50","BLIND",3112307,NA,"complete",NA,"5f9c2eee84865f085ddc80ab","computer","Desktop or Laptop","Windows 10","Chrome 86.0.4240.111","1920x1080","1920x937","FeedbackOnly","FeedbackOnly","FeedbackOnly",9,"1",6,"Test","buttonB","continue_button",21264.32,NA,NA,"",NA,"GeldFeedbackOnly",NA
"25",1604071973072,1,"30/10/2020 16:32:53","BLIND",3112307,NA,"complete",NA,"5f9c2eee84865f085ddc80ab","computer","Desktop or Laptop","Windows 10","Chrome 86.0.4240.111","1920x1080","1920x937","FeedbackOnly","FeedbackOnly","FeedbackOnly",6,"3",1,"ReadyForNext","advancementZone","continue_button",21264.32,NA,NA,"",NA,"ReadyForNextTextScreen",NA
"26",1604072066947,1,"30/10/2020 16:34:26","BLIND",3112307,NA,"complete",NA,"5f9c2eee84865f085ddc80ab","computer","Desktop or Laptop","Windows 10","Chrome 86.0.4240.111","1920x1080","1920x937","FeedbackOnly","FeedbackOnly","FeedbackOnly",5,"1",1,"Text","advancementZone","continue_button",21264.32,NA,NA,"",NA,"BotoxFeedbackOnly",NA
"27",1604072073076,1,"30/10/2020 16:34:33","BLIND",3112307,NA,"complete",NA,"5f9c2eee84865f085ddc80ab","computer","Desktop or Laptop","Windows 10","Chrome 86.0.4240.111","1920x1080","1920x937","FeedbackOnly","FeedbackOnly","FeedbackOnly",5,"1",2,"JoL1","Three","response_button_text",21264.32,NA,NA,"1",1,"BotoxFeedbackOnly",NA
"28",1604072082127,1,"30/10/2020 16:34:42","BLIND",3112307,NA,"complete",NA,"5f9c2eee84865f085ddc80ab","computer","Desktop or Laptop","Windows 10","Chrome 86.0.4240.111","1920x1080","1920x937","FeedbackOnly","FeedbackOnly","FeedbackOnly",5,"1",3,"Feedback","Zone1","continue_button",21264.32,NA,NA,"",NA,"BotoxFeedbackOnly",NA
"29",1604072085274,1,"30/10/2020 16:34:45","BLIND",3112307,NA,"complete",NA,"5f9c2eee84865f085ddc80ab","computer","Desktop or Laptop","Windows 10","Chrome 86.0.4240.111","1920x1080","1920x937","FeedbackOnly","FeedbackOnly","FeedbackOnly",5,"1",4,"JoL2","Two","response_button_text",21264.32,NA,NA,"1",1,"BotoxFeedbackOnly",NA
"3",1604071583191,1,"30/10/2020 16:26:23","BLIND",3112307,NA,"complete",NA,"5f9c2eee84865f085ddc80ab","computer","Desktop or Laptop","Windows 10","Chrome 86.0.4240.111","1920x1080","1920x937","FeedbackOnly","FeedbackOnly","FeedbackOnly",11,"1",2,"JoL1","Three","response_button_text",21264.32,NA,NA,"1",1,"SuezFeedbackOnly",NA
"30",1604072088125,1,"30/10/2020 16:34:48","BLIND",3112307,NA,"complete",NA,"5f9c2eee84865f085ddc80ab","computer","Desktop or Laptop","Windows 10","Chrome 86.0.4240.111","1920x1080","1920x937","FeedbackOnly","FeedbackOnly","FeedbackOnly",5,"1",5,"InstructieToets","advancementZone","continue_button",21264.32,NA,NA,"",NA,"BotoxFeedbackOnly",NA
"31",1604072207369,1,"30/10/2020 16:36:47","BLIND",3112307,NA,"complete",NA,"5f9c2eee84865f085ddc80ab","computer","Desktop or Laptop","Windows 10","Chrome 86.0.4240.111","1920x1080","1920x937","FeedbackOnly","FeedbackOnly","FeedbackOnly",5,"1",6,"Test","buttonA","response_text_area",21264.32,NA,NA,"LjL",NA,"BotoxFeedbackOnly",NA
"32",1604072207370,1,"30/10/2020 16:36:47","BLIND",3112307,NA,"complete",NA,"5f9c2eee84865f085ddc80ab","computer","Desktop or Laptop","Windows 10","Chrome 86.0.4240.111","1920x1080","1920x937","FeedbackOnly","FeedbackOnly","FeedbackOnly",5,"1",6,"Test","buttonB","continue_button",21264.32,NA,NA,"",NA,"BotoxFeedbackOnly",NA
"33",1604072208893,1,"30/10/2020 16:36:48","BLIND",3112307,NA,"complete",NA,"5f9c2eee84865f085ddc80ab","computer","Desktop or Laptop","Windows 10","Chrome 86.0.4240.111","1920x1080","1920x937","FeedbackOnly","FeedbackOnly","FeedbackOnly",8,"4",1,"ReadyForNext","advancementZone","continue_button",21264.32,NA,NA,"",NA,"ReadyForNextTextScreen",NA
"34",1604072283044,1,"30/10/2020 16:38:03","BLIND",3112307,NA,"complete",NA,"5f9c2eee84865f085ddc80ab","computer","Desktop or Laptop","Windows 10","Chrome 86.0.4240.111","1920x1080","1920x937","FeedbackOnly","FeedbackOnly","FeedbackOnly",1,"1",1,"Text","advancementZone","continue_button",21264.32,NA,NA,"",NA,"MetroFeedbackOnly",NA
"35",1604072285194,1,"30/10/2020 16:38:05","BLIND",3112307,NA,"complete",NA,"5f9c2eee84865f085ddc80ab","computer","Desktop or Laptop","Windows 10","Chrome 86.0.4240.111","1920x1080","1920x937","FeedbackOnly","FeedbackOnly","FeedbackOnly",1,"1",2,"JoL1","One","response_button_text",21264.32,NA,NA,"1",1,"MetroFeedbackOnly",NA
"36",1604072292004,1,"30/10/2020 16:38:12","BLIND",3112307,NA,"complete",NA,"5f9c2eee84865f085ddc80ab","computer","Desktop or Laptop","Windows 10","Chrome 86.0.4240.111","1920x1080","1920x937","FeedbackOnly","FeedbackOnly","FeedbackOnly",1,"1",3,"Feedback","Zone1","continue_button",21264.32,NA,NA,"",NA,"MetroFeedbackOnly",NA
"37",1604072293700,1,"30/10/2020 16:38:13","BLIND",3112307,NA,"complete",NA,"5f9c2eee84865f085ddc80ab","computer","Desktop or Laptop","Windows 10","Chrome 86.0.4240.111","1920x1080","1920x937","FeedbackOnly","FeedbackOnly","FeedbackOnly",1,"1",4,"JoL2","Two","response_button_text",21264.32,NA,NA,"1",1,"MetroFeedbackOnly",NA
"38",1604072295579,1,"30/10/2020 16:38:15","BLIND",3112307,NA,"complete",NA,"5f9c2eee84865f085ddc80ab","computer","Desktop or Laptop","Windows 10","Chrome 86.0.4240.111","1920x1080","1920x937","FeedbackOnly","FeedbackOnly","FeedbackOnly",1,"1",5,"InstructieToets","advancementZone","continue_button",21264.32,NA,NA,"",NA,"MetroFeedbackOnly",NA
"39",1604072332810,1,"30/10/2020 16:38:52","BLIND",3112307,NA,"complete",NA,"5f9c2eee84865f085ddc80ab","computer","Desktop or Laptop","Windows 10","Chrome 86.0.4240.111","1920x1080","1920x937","FeedbackOnly","FeedbackOnly","FeedbackOnly",1,"1",6,"Test","buttonA","response_text_area",21264.32,NA,NA,"9xp9fmH5U",NA,"MetroFeedbackOnly",NA
"4",1604071593435,1,"30/10/2020 16:26:33","BLIND",3112307,NA,"complete",NA,"5f9c2eee84865f085ddc80ab","computer","Desktop or Laptop","Windows 10","Chrome 86.0.4240.111","1920x1080","1920x937","FeedbackOnly","FeedbackOnly","FeedbackOnly",11,"1",3,"Feedback","Zone1","continue_button",21264.32,NA,NA,"",NA,"SuezFeedbackOnly",NA
"40",1604072332811,1,"30/10/2020 16:38:52","BLIND",3112307,NA,"complete",NA,"5f9c2eee84865f085ddc80ab","computer","Desktop or Laptop","Windows 10","Chrome 86.0.4240.111","1920x1080","1920x937","FeedbackOnly","FeedbackOnly","FeedbackOnly",1,"1",6,"Test","buttonB","continue_button",21264.32,NA,NA,"",NA,"MetroFeedbackOnly",NA
"41",1604072335328,1,"30/10/2020 16:38:55","BLIND",3112307,NA,"complete",NA,"5f9c2eee84865f085ddc80ab","computer","Desktop or Laptop","Windows 10","Chrome 86.0.4240.111","1920x1080","1920x937","FeedbackOnly","FeedbackOnly","FeedbackOnly",10,"5",1,"ReadyForNext","advancementZone","continue_button",21264.32,NA,NA,"",NA,"ReadyForNextTextScreen",NA
"42",1604072417847,1,"30/10/2020 16:40:17","BLIND",3112307,NA,"complete",NA,"5f9c2eee84865f085ddc80ab","computer","Desktop or Laptop","Windows 10","Chrome 86.0.4240.111","1920x1080","1920x937","FeedbackOnly","FeedbackOnly","FeedbackOnly",3,"1",1,"Text","advancementZone","continue_button",21264.32,NA,NA,"",NA,"BetonFeedbackOnly",NA
"43",1604072419342,1,"30/10/2020 16:40:19","BLIND",3112307,NA,"complete",NA,"5f9c2eee84865f085ddc80ab","computer","Desktop or Laptop","Windows 10","Chrome 86.0.4240.111","1920x1080","1920x937","FeedbackOnly","FeedbackOnly","FeedbackOnly",3,"1",2,"JoL1","Three","response_button_text",21264.32,NA,NA,"1",1,"BetonFeedbackOnly",NA
"44",1604072424328,1,"30/10/2020 16:40:24","BLIND",3112307,NA,"complete",NA,"5f9c2eee84865f085ddc80ab","computer","Desktop or Laptop","Windows 10","Chrome 86.0.4240.111","1920x1080","1920x937","FeedbackOnly","FeedbackOnly","FeedbackOnly",3,"1",3,"Feedback","Zone1","continue_button",21264.32,NA,NA,"",NA,"BetonFeedbackOnly",NA
"45",1604072425670,1,"30/10/2020 16:40:25","BLIND",3112307,NA,"complete",NA,"5f9c2eee84865f085ddc80ab","computer","Desktop or Laptop","Windows 10","Chrome 86.0.4240.111","1920x1080","1920x937","FeedbackOnly","FeedbackOnly","FeedbackOnly",3,"1",4,"JoL2","Three","response_button_text",21264.32,NA,NA,"1",1,"BetonFeedbackOnly",NA
"46",1604072432006,1,"30/10/2020 16:40:32","BLIND",3112307,NA,"complete",NA,"5f9c2eee84865f085ddc80ab","computer","Desktop or Laptop","Windows 10","Chrome 86.0.4240.111","1920x1080","1920x937","FeedbackOnly","FeedbackOnly","FeedbackOnly",3,"1",5,"InstructieToets","advancementZone","continue_button",21264.32,NA,NA,"",NA,"BetonFeedbackOnly",NA
"47",1604072496322,1,"30/10/2020 16:41:36","BLIND",3112307,NA,"complete",NA,"5f9c2eee84865f085ddc80ab","computer","Desktop or Laptop","Windows 10","Chrome 86.0.4240.111","1920x1080","1920x937","FeedbackOnly","FeedbackOnly","FeedbackOnly",3,"1",6,"Test","buttonA","response_text_area",21264.32,NA,NA,"jDJ",NA,"BetonFeedbackOnly",NA
"48",1604072496323,1,"30/10/2020 16:41:36","BLIND",3112307,NA,"complete",NA,"5f9c2eee84865f085ddc80ab","computer","Desktop or Laptop","Windows 10","Chrome 86.0.4240.111","1920x1080","1920x937","FeedbackOnly","FeedbackOnly","FeedbackOnly",3,"1",6,"Test","buttonB","continue_button",21264.32,NA,NA,"",NA,"BetonFeedbackOnly",NA
"49",1604072496324,1,"30/10/2020 16:41:36","BLIND",3112307,NA,"complete",NA,"5f9c2eee84865f085ddc80ab","computer","Desktop or Laptop","Windows 10","Chrome 86.0.4240.111","1920x1080","1920x937","FeedbackOnly","FeedbackOnly","",NA,"END TASK",NA,"","","",1005962,NA,NA,"",NA,"",NA
"5",1604071594740,1,"30/10/2020 16:26:34","BLIND",3112307,NA,"complete",NA,"5f9c2eee84865f085ddc80ab","computer","Desktop or Laptop","Windows 10","Chrome 86.0.4240.111","1920x1080","1920x937","FeedbackOnly","FeedbackOnly","FeedbackOnly",11,"1",4,"JoL2","Three","response_button_text",21264.32,NA,NA,"1",1,"SuezFeedbackOnly",NA
"6",1604071595868,1,"30/10/2020 16:26:35","BLIND",3112307,NA,"complete",NA,"5f9c2eee84865f085ddc80ab","computer","Desktop or Laptop","Windows 10","Chrome 86.0.4240.111","1920x1080","1920x937","FeedbackOnly","FeedbackOnly","FeedbackOnly",11,"1",5,"InstructieToets","advancementZone","continue_button",21264.32,NA,NA,"",NA,"SuezFeedbackOnly",NA
"7",1604071728457,1,"30/10/2020 16:28:48","BLIND",3112307,NA,"complete",NA,"5f9c2eee84865f085ddc80ab","computer","Desktop or Laptop","Windows 10","Chrome 86.0.4240.111","1920x1080","1920x937","FeedbackOnly","FeedbackOnly","FeedbackOnly",11,"1",6,"Test","buttonA","response_text_area",21264.32,NA,NA,"E1SvmKpkoF",NA,"SuezFeedbackOnly",NA
"8",1604071728458,1,"30/10/2020 16:28:48","BLIND",3112307,NA,"complete",NA,"5f9c2eee84865f085ddc80ab","computer","Desktop or Laptop","Windows 10","Chrome 86.0.4240.111","1920x1080","1920x937","FeedbackOnly","FeedbackOnly","FeedbackOnly",11,"1",6,"Test","buttonB","continue_button",21264.32,NA,NA,"",NA,"SuezFeedbackOnly",NA
"9",1604071733832,1,"30/10/2020 16:28:53","BLIND",3112307,NA,"complete",NA,"5f9c2eee84865f085ddc80ab","computer","Desktop or Laptop","Windows 10","Chrome 86.0.4240.111","1920x1080","1920x937","FeedbackOnly","FeedbackOnly","FeedbackOnly",2,"1",1,"ReadyForNext","advancementZone","continue_button",21264.32,NA,NA,"",NA,"ReadyForNextTextScreen",NA
"1",1604837766756,1,"08/11/2020 13:16:06","BLIND",3361836,NA,"complete",NA,"5fa7dfd76ed0e857a01badf2","computer","Desktop or Laptop","Windows 10","Edge 86.0.622.63","1366x768","1366x667","FeedbackOnly","FeedbackOnly","",NA,"BEGIN TASK",NA,"","","",NA,NA,NA,"",NA,"",NA
"10",1604838067149,1,"08/11/2020 13:21:07","BLIND",3361836,NA,"complete",NA,"5fa7dfd76ed0e857a01badf2","computer","Desktop or Laptop","Windows 10","Edge 86.0.622.63","1366x768","1366x667","FeedbackOnly","FeedbackOnly","FeedbackOnly",3,"1",1,"Text","advancementZone","continue_button",21264.32,NA,NA,"",NA,"BetonFeedbackOnly",NA
"11",1604838068597,1,"08/11/2020 13:21:08","BLIND",3361836,NA,"complete",NA,"5fa7dfd76ed0e857a01badf2","computer","Desktop or Laptop","Windows 10","Edge 86.0.622.63","1366x768","1366x667","FeedbackOnly","FeedbackOnly","FeedbackOnly",3,"1",2,"JoL1","Two","response_button_text",21264.32,NA,NA,"1",1,"BetonFeedbackOnly",NA
"12",1604838076261,1,"08/11/2020 13:21:16","BLIND",3361836,NA,"complete",NA,"5fa7dfd76ed0e857a01badf2","computer","Desktop or Laptop","Windows 10","Edge 86.0.622.63","1366x768","1366x667","FeedbackOnly","FeedbackOnly","FeedbackOnly",3,"1",3,"Feedback","Zone1","continue_button",21264.32,NA,NA,"",NA,"BetonFeedbackOnly",NA
"13",1604838077141,1,"08/11/2020 13:21:17","BLIND",3361836,NA,"complete",NA,"5fa7dfd76ed0e857a01badf2","computer","Desktop or Laptop","Windows 10","Edge 86.0.622.63","1366x768","1366x667","FeedbackOnly","FeedbackOnly","FeedbackOnly",3,"1",4,"JoL2","Three","response_button_text",21264.32,NA,NA,"1",1,"BetonFeedbackOnly",NA
"14",1604838078293,1,"08/11/2020 13:21:18","BLIND",3361836,NA,"complete",NA,"5fa7dfd76ed0e857a01badf2","computer","Desktop or Laptop","Windows 10","Edge 86.0.622.63","1366x768","1366x667","FeedbackOnly","FeedbackOnly","FeedbackOnly",3,"1",5,"InstructieToets","advancementZone","continue_button",21264.32,NA,NA,"",NA,"BetonFeedbackOnly",NA
"15",1604838177303,1,"08/11/2020 13:22:57","BLIND",3361836,NA,"complete",NA,"5fa7dfd76ed0e857a01badf2","computer","Desktop or Laptop","Windows 10","Edge 86.0.622.63","1366x768","1366x667","FeedbackOnly","FeedbackOnly","FeedbackOnly",3,"1",6,"Test","buttonA","response_text_area",21264.32,NA,NA,"TWc8LN",NA,"BetonFeedbackOnly",NA
"16",1604838177305,1,"08/11/2020 13:22:57","BLIND",3361836,NA,"complete",NA,"5fa7dfd76ed0e857a01badf2","computer","Desktop or Laptop","Windows 10","Edge 86.0.622.63","1366x768","1366x667","FeedbackOnly","FeedbackOnly","FeedbackOnly",3,"1",6,"Test","buttonB","continue_button",21264.32,NA,NA,"",NA,"BetonFeedbackOnly",NA
"17",1604838178925,1,"08/11/2020 13:22:58","BLIND",3361836,NA,"complete",NA,"5fa7dfd76ed0e857a01badf2","computer","Desktop or Laptop","Windows 10","Edge 86.0.622.63","1366x768","1366x667","FeedbackOnly","FeedbackOnly","FeedbackOnly",4,"2",1,"ReadyForNext","advancementZone","continue_button",21264.32,NA,NA,"",NA,"ReadyForNextTextScreen",NA
"18",1604838259836,1,"08/11/2020 13:24:19","BLIND",3361836,NA,"complete",NA,"5fa7dfd76ed0e857a01badf2","computer","Desktop or Laptop","Windows 10","Edge 86.0.622.63","1366x768","1366x667","FeedbackOnly","FeedbackOnly","FeedbackOnly",1,"1",1,"Text","advancementZone","continue_button",21264.32,NA,NA,"",NA,"MetroFeedbackOnly",NA
"19",1604838261476,1,"08/11/2020 13:24:21","BLIND",3361836,NA,"complete",NA,"5fa7dfd76ed0e857a01badf2","computer","Desktop or Laptop","Windows 10","Edge 86.0.622.63","1366x768","1366x667","FeedbackOnly","FeedbackOnly","FeedbackOnly",1,"1",2,"JoL1","Two","response_button_text",21264.32,NA,NA,"1",1,"MetroFeedbackOnly",NA
"2",1604837805145,1,"08/11/2020 13:16:45","BLIND",3361836,NA,"complete",NA,"5fa7dfd76ed0e857a01badf2","computer","Desktop or Laptop","Windows 10","Edge 86.0.622.63","1366x768","1366x667","FeedbackOnly","FeedbackOnly","FeedbackOnly",7,"1",1,"Text","advancementZone","continue_button",21264.32,NA,NA,"",NA,"MuziekFeedbackOnly",NA
"20",1604838269028,1,"08/11/2020 13:24:29","BLIND",3361836,NA,"complete",NA,"5fa7dfd76ed0e857a01badf2","computer","Desktop or Laptop","Windows 10","Edge 86.0.622.63","1366x768","1366x667","FeedbackOnly","FeedbackOnly","FeedbackOnly",1,"1",3,"Feedback","Zone1","continue_button",21264.32,NA,NA,"",NA,"MetroFeedbackOnly",NA
"21",1604838270036,1,"08/11/2020 13:24:30","BLIND",3361836,NA,"complete",NA,"5fa7dfd76ed0e857a01badf2","computer","Desktop or Laptop","Windows 10","Edge 86.0.622.63","1366x768","1366x667","FeedbackOnly","FeedbackOnly","FeedbackOnly",1,"1",4,"JoL2","Three","response_button_text",21264.32,NA,NA,"1",1,"MetroFeedbackOnly",NA
"22",1604838271044,1,"08/11/2020 13:24:31","BLIND",3361836,NA,"complete",NA,"5fa7dfd76ed0e857a01badf2","computer","Desktop or Laptop","Windows 10","Edge 86.0.622.63","1366x768","1366x667","FeedbackOnly","FeedbackOnly","FeedbackOnly",1,"1",5,"InstructieToets","advancementZone","continue_button",21264.32,NA,NA,"",NA,"MetroFeedbackOnly",NA
"23",1604838419227,1,"08/11/2020 13:26:59","BLIND",3361836,NA,"complete",NA,"5fa7dfd76ed0e857a01badf2","computer","Desktop or Laptop","Windows 10","Edge 86.0.622.63","1366x768","1366x667","FeedbackOnly","FeedbackOnly","FeedbackOnly",1,"1",6,"Test","buttonA","response_text_area",21264.32,NA,NA,"9UOuPaY7RP",NA,"MetroFeedbackOnly",NA
"24",1604838419229,1,"08/11/2020 13:26:59","BLIND",3361836,NA,"complete",NA,"5fa7dfd76ed0e857a01badf2","computer","Desktop or Laptop","Windows 10","Edge 86.0.622.63","1366x768","1366x667","FeedbackOnly","FeedbackOnly","FeedbackOnly",1,"1",6,"Test","buttonB","continue_button",21264.32,NA,NA,"",NA,"MetroFeedbackOnly",NA
"25",1604838420307,1,"08/11/2020 13:27:00","BLIND",3361836,NA,"complete",NA,"5fa7dfd76ed0e857a01badf2","computer","Desktop or Laptop","Windows 10","Edge 86.0.622.63","1366x768","1366x667","FeedbackOnly","FeedbackOnly","FeedbackOnly",6,"3",1,"ReadyForNext","advancementZone","continue_button",21264.32,NA,NA,"",NA,"ReadyForNextTextScreen",NA
"26",1604838510699,1,"08/11/2020 13:28:30","BLIND",3361836,NA,"complete",NA,"5fa7dfd76ed0e857a01badf2","computer","Desktop or Laptop","Windows 10","Edge 86.0.622.63","1366x768","1366x667","FeedbackOnly","FeedbackOnly","FeedbackOnly",9,"1",1,"Text","advancementZone","continue_button",21264.32,NA,NA,"",NA,"GeldFeedbackOnly",NA
"27",1604838512971,1,"08/11/2020 13:28:32","BLIND",3361836,NA,"complete",NA,"5fa7dfd76ed0e857a01badf2","computer","Desktop or Laptop","Windows 10","Edge 86.0.622.63","1366x768","1366x667","FeedbackOnly","FeedbackOnly","FeedbackOnly",9,"1",2,"JoL1","Two","response_button_text",21264.32,NA,NA,"1",1,"GeldFeedbackOnly",NA
"28",1604838523483,1,"08/11/2020 13:28:43","BLIND",3361836,NA,"complete",NA,"5fa7dfd76ed0e857a01badf2","computer","Desktop or Laptop","Windows 10","Edge 86.0.622.63","1366x768","1366x667","FeedbackOnly","FeedbackOnly","FeedbackOnly",9,"1",3,"Feedback","Zone1","continue_button",21264.32,NA,NA,"",NA,"GeldFeedbackOnly",NA
"29",1604838524723,1,"08/11/2020 13:28:44","BLIND",3361836,NA,"complete",NA,"5fa7dfd76ed0e857a01badf2","computer","Desktop or Laptop","Windows 10","Edge 86.0.622.63","1366x768","1366x667","FeedbackOnly","FeedbackOnly","FeedbackOnly",9,"1",4,"JoL2","Three","response_button_text",21264.32,NA,NA,"1",1,"GeldFeedbackOnly",NA
"3",1604837809080,1,"08/11/2020 13:16:49","BLIND",3361836,NA,"complete",NA,"5fa7dfd76ed0e857a01badf2","computer","Desktop or Laptop","Windows 10","Edge 86.0.622.63","1366x768","1366x667","FeedbackOnly","FeedbackOnly","FeedbackOnly",7,"1",2,"JoL1","Two","response_button_text",21264.32,NA,NA,"1",1,"MuziekFeedbackOnly",NA
"30",1604838526139,1,"08/11/2020 13:28:46","BLIND",3361836,NA,"complete",NA,"5fa7dfd76ed0e857a01badf2","computer","Desktop or Laptop","Windows 10","Edge 86.0.622.63","1366x768","1366x667","FeedbackOnly","FeedbackOnly","FeedbackOnly",9,"1",5,"ToetsInstructies","advancementZone","continue_button",21264.32,NA,NA,"",NA,"GeldFeedbackOnly",NA
"31",1604838631339,1,"08/11/2020 13:30:31","BLIND",3361836,NA,"complete",NA,"5fa7dfd76ed0e857a01badf2","computer","Desktop or Laptop","Windows 10","Edge 86.0.622.63","1366x768","1366x667","FeedbackOnly","FeedbackOnly","FeedbackOnly",9,"1",6,"Test","buttonA","response_text_area",21264.32,NA,NA,"IM6wR",NA,"GeldFeedbackOnly",NA
"32",1604838631342,1,"08/11/2020 13:30:31","BLIND",3361836,NA,"complete",NA,"5fa7dfd76ed0e857a01badf2","computer","Desktop or Laptop","Windows 10","Edge 86.0.622.63","1366x768","1366x667","FeedbackOnly","FeedbackOnly","FeedbackOnly",9,"1",6,"Test","buttonB","continue_button",21264.32,NA,NA,"",NA,"GeldFeedbackOnly",NA
"33",1604838633481,1,"08/11/2020 13:30:33","BLIND",3361836,NA,"complete",NA,"5fa7dfd76ed0e857a01badf2","computer","Desktop or Laptop","Windows 10","Edge 86.0.622.63","1366x768","1366x667","FeedbackOnly","FeedbackOnly","FeedbackOnly",8,"4",1,"ReadyForNext","advancementZone","continue_button",21264.32,NA,NA,"",NA,"ReadyForNextTextScreen",NA
"34",1604838674962,1,"08/11/2020 13:31:14","BLIND",3361836,NA,"complete",NA,"5fa7dfd76ed0e857a01badf2","computer","Desktop or Laptop","Windows 10","Edge 86.0.622.63","1366x768","1366x667","FeedbackOnly","FeedbackOnly","FeedbackOnly",5,"1",1,"Text","advancementZone","continue_button",21264.32,NA,NA,"",NA,"BotoxFeedbackOnly",NA
"35",1604838676234,1,"08/11/2020 13:31:16","BLIND",3361836,NA,"complete",NA,"5fa7dfd76ed0e857a01badf2","computer","Desktop or Laptop","Windows 10","Edge 86.0.622.63","1366x768","1366x667","FeedbackOnly","FeedbackOnly","FeedbackOnly",5,"1",2,"JoL1","Two","response_button_text",21264.32,NA,NA,"1",1,"BotoxFeedbackOnly",NA
"36",1604838697465,1,"08/11/2020 13:31:37","BLIND",3361836,NA,"complete",NA,"5fa7dfd76ed0e857a01badf2","computer","Desktop or Laptop","Windows 10","Edge 86.0.622.63","1366x768","1366x667","FeedbackOnly","FeedbackOnly","FeedbackOnly",5,"1",3,"Feedback","Zone1","continue_button",21264.32,NA,NA,"",NA,"BotoxFeedbackOnly",NA
"37",1604838698146,1,"08/11/2020 13:31:38","BLIND",3361836,NA,"complete",NA,"5fa7dfd76ed0e857a01badf2","computer","Desktop or Laptop","Windows 10","Edge 86.0.622.63","1366x768","1366x667","FeedbackOnly","FeedbackOnly","FeedbackOnly",5,"1",4,"JoL2","Three","response_button_text",21264.32,NA,NA,"1",1,"BotoxFeedbackOnly",NA
"38",1604838699017,1,"08/11/2020 13:31:39","BLIND",3361836,NA,"complete",NA,"5fa7dfd76ed0e857a01badf2","computer","Desktop or Laptop","Windows 10","Edge 86.0.622.63","1366x768","1366x667","FeedbackOnly","FeedbackOnly","FeedbackOnly",5,"1",5,"InstructieToets","advancementZone","continue_button",21264.32,NA,NA,"",NA,"BotoxFeedbackOnly",NA
"39",1604838795817,1,"08/11/2020 13:33:15","BLIND",3361836,NA,"complete",NA,"5fa7dfd76ed0e857a01badf2","computer","Desktop or Laptop","Windows 10","Edge 86.0.622.63","1366x768","1366x667","FeedbackOnly","FeedbackOnly","FeedbackOnly",5,"1",6,"Test","buttonA","response_text_area",21264.32,NA,NA,"xJrAj",NA,"BotoxFeedbackOnly",NA
"4",1604837816608,1,"08/11/2020 13:16:56","BLIND",3361836,NA,"complete",NA,"5fa7dfd76ed0e857a01badf2","computer","Desktop or Laptop","Windows 10","Edge 86.0.622.63","1366x768","1366x667","FeedbackOnly","FeedbackOnly","FeedbackOnly",7,"1",3,"Feedback","Zone1","continue_button",21264.32,NA,NA,"",NA,"MuziekFeedbackOnly",NA
"40",1604838795819,1,"08/11/2020 13:33:15","BLIND",3361836,NA,"complete",NA,"5fa7dfd76ed0e857a01badf2","computer","Desktop or Laptop","Windows 10","Edge 86.0.622.63","1366x768","1366x667","FeedbackOnly","FeedbackOnly","FeedbackOnly",5,"1",6,"Test","buttonB","continue_button",21264.32,NA,NA,"",NA,"BotoxFeedbackOnly",NA
"41",1604838796953,1,"08/11/2020 13:33:16","BLIND",3361836,NA,"complete",NA,"5fa7dfd76ed0e857a01badf2","computer","Desktop or Laptop","Windows 10","Edge 86.0.622.63","1366x768","1366x667","FeedbackOnly","FeedbackOnly","FeedbackOnly",10,"5",1,"ReadyForNext","advancementZone","continue_button",21264.32,NA,NA,"",NA,"ReadyForNextTextScreen",NA
"42",1604838837921,1,"08/11/2020 13:33:57","BLIND",3361836,NA,"complete",NA,"5fa7dfd76ed0e857a01badf2","computer","Desktop or Laptop","Windows 10","Edge 86.0.622.63","1366x768","1366x667","FeedbackOnly","FeedbackOnly","FeedbackOnly",11,"1",1,"Text","advancementZone","continue_button",21264.32,NA,NA,"",NA,"SuezFeedbackOnly",NA
"43",1604838839008,1,"08/11/2020 13:33:59","BLIND",3361836,NA,"complete",NA,"5fa7dfd76ed0e857a01badf2","computer","Desktop or Laptop","Windows 10","Edge 86.0.622.63","1366x768","1366x667","FeedbackOnly","FeedbackOnly","FeedbackOnly",11,"1",2,"JoL1","Two","response_button_text",21264.32,NA,NA,"1",1,"SuezFeedbackOnly",NA
"44",1604838845824,1,"08/11/2020 13:34:05","BLIND",3361836,NA,"complete",NA,"5fa7dfd76ed0e857a01badf2","computer","Desktop or Laptop","Windows 10","Edge 86.0.622.63","1366x768","1366x667","FeedbackOnly","FeedbackOnly","FeedbackOnly",11,"1",3,"Feedback","Zone1","continue_button",21264.32,NA,NA,"",NA,"SuezFeedbackOnly",NA
"45",1604838846600,1,"08/11/2020 13:34:06","BLIND",3361836,NA,"complete",NA,"5fa7dfd76ed0e857a01badf2","computer","Desktop or Laptop","Windows 10","Edge 86.0.622.63","1366x768","1366x667","FeedbackOnly","FeedbackOnly","FeedbackOnly",11,"1",4,"JoL2","Three","response_button_text",21264.32,NA,NA,"1",1,"SuezFeedbackOnly",NA
"46",1604838847376,1,"08/11/2020 13:34:07","BLIND",3361836,NA,"complete",NA,"5fa7dfd76ed0e857a01badf2","computer","Desktop or Laptop","Windows 10","Edge 86.0.622.63","1366x768","1366x667","FeedbackOnly","FeedbackOnly","FeedbackOnly",11,"1",5,"InstructieToets","advancementZone","continue_button",21264.32,NA,NA,"",NA,"SuezFeedbackOnly",NA
"47",1604839037720,1,"08/11/2020 13:37:17","BLIND",3361836,NA,"complete",NA,"5fa7dfd76ed0e857a01badf2","computer","Desktop or Laptop","Windows 10","Edge 86.0.622.63","1366x768","1366x667","FeedbackOnly","FeedbackOnly","FeedbackOnly",11,"1",6,"Test","buttonA","response_text_area",21264.32,NA,NA,"1794TtUem",NA,"SuezFeedbackOnly",NA
"48",1604839037721,1,"08/11/2020 13:37:17","BLIND",3361836,NA,"complete",NA,"5fa7dfd76ed0e857a01badf2","computer","Desktop or Laptop","Windows 10","Edge 86.0.622.63","1366x768","1366x667","FeedbackOnly","FeedbackOnly","FeedbackOnly",11,"1",6,"Test","buttonB","continue_button",21264.32,NA,NA,"",NA,"SuezFeedbackOnly",NA
"49",1604839037725,1,"08/11/2020 13:37:17","BLIND",3361836,NA,"complete",NA,"5fa7dfd76ed0e857a01badf2","computer","Desktop or Laptop","Windows 10","Edge 86.0.622.63","1366x768","1366x667","FeedbackOnly","FeedbackOnly","",NA,"END TASK",NA,"","","",1270969,NA,NA,"",NA,"",NA
"5",1604837818447,1,"08/11/2020 13:16:58","BLIND",3361836,NA,"complete",NA,"5fa7dfd76ed0e857a01badf2","computer","Desktop or Laptop","Windows 10","Edge 86.0.622.63","1366x768","1366x667","FeedbackOnly","FeedbackOnly","FeedbackOnly",7,"1",4,"JoL2","Three","response_button_text",21264.32,NA,NA,"1",1,"MuziekFeedbackOnly",NA
"6",1604837819783,1,"08/11/2020 13:16:59","BLIND",3361836,NA,"complete",NA,"5fa7dfd76ed0e857a01badf2","computer","Desktop or Laptop","Windows 10","Edge 86.0.622.63","1366x768","1366x667","FeedbackOnly","FeedbackOnly","FeedbackOnly",7,"1",5,"InstructieToets","advancementZone","continue_button",21264.32,NA,NA,"",NA,"MuziekFeedbackOnly",NA
"7",1604838002835,1,"08/11/2020 13:20:02","BLIND",3361836,NA,"complete",NA,"5fa7dfd76ed0e857a01badf2","computer","Desktop or Laptop","Windows 10","Edge 86.0.622.63","1366x768","1366x667","FeedbackOnly","FeedbackOnly","FeedbackOnly",7,"1",6,"Test","buttonA","response_text_area",21264.32,NA,NA,"l69r",NA,"MuziekFeedbackOnly",NA
"8",1604838002837,1,"08/11/2020 13:20:02","BLIND",3361836,NA,"complete",NA,"5fa7dfd76ed0e857a01badf2","computer","Desktop or Laptop","Windows 10","Edge 86.0.622.63","1366x768","1366x667","FeedbackOnly","FeedbackOnly","FeedbackOnly",7,"1",6,"Test","buttonB","continue_button",21264.32,NA,NA,"",NA,"MuziekFeedbackOnly",NA
"9",1604838005510,1,"08/11/2020 13:20:05","BLIND",3361836,NA,"complete",NA,"5fa7dfd76ed0e857a01badf2","computer","Desktop or Laptop","Windows 10","Edge 86.0.622.63","1366x768","1366x667","FeedbackOnly","FeedbackOnly","FeedbackOnly",2,"1",1,"ReadyForNext","advancementZone","continue_button",21264.32,NA,NA,"",NA,"ReadyForNextTextScreen",NA
"1",1604434551151,1,"03/11/2020 21:15:51","BLIND",3464819,NA,"complete",NA,"5fa1b95885210a323c220fc6","computer","Desktop or Laptop","Windows 10","Firefox 82.0","1536x864","1536x750","FeedbackOnly","FeedbackOnly","",NA,"BEGIN TASK",NA,"","","",NA,NA,NA,"",NA,"",NA
"10",1604434770325,1,"03/11/2020 21:19:30","BLIND",3464819,NA,"complete",NA,"5fa1b95885210a323c220fc6","computer","Desktop or Laptop","Windows 10","Firefox 82.0","1536x864","1536x750","FeedbackOnly","FeedbackOnly","FeedbackOnly",5,"1",1,"Text","advancementZone","continue_button",21264.32,NA,NA,"",NA,"BotoxFeedbackOnly",NA
"11",1604434772605,1,"03/11/2020 21:19:32","BLIND",3464819,NA,"complete",NA,"5fa1b95885210a323c220fc6","computer","Desktop or Laptop","Windows 10","Firefox 82.0","1536x864","1536x750","FeedbackOnly","FeedbackOnly","FeedbackOnly",5,"1",2,"JoL1","Three","response_button_text",21264.32,NA,NA,"1",1,"BotoxFeedbackOnly",NA
"12",1604434783878,1,"03/11/2020 21:19:43","BLIND",3464819,NA,"complete",NA,"5fa1b95885210a323c220fc6","computer","Desktop or Laptop","Windows 10","Firefox 82.0","1536x864","1536x750","FeedbackOnly","FeedbackOnly","FeedbackOnly",5,"1",3,"Feedback","Zone1","continue_button",21264.32,NA,NA,"",NA,"BotoxFeedbackOnly",NA
"13",1604434786111,1,"03/11/2020 21:19:46","BLIND",3464819,NA,"complete",NA,"5fa1b95885210a323c220fc6","computer","Desktop or Laptop","Windows 10","Firefox 82.0","1536x864","1536x750","FeedbackOnly","FeedbackOnly","FeedbackOnly",5,"1",4,"JoL2","Four","response_button_text",21264.32,NA,NA,"1",1,"BotoxFeedbackOnly",NA
"14",1604434787271,1,"03/11/2020 21:19:47","BLIND",3464819,NA,"complete",NA,"5fa1b95885210a323c220fc6","computer","Desktop or Laptop","Windows 10","Firefox 82.0","1536x864","1536x750","FeedbackOnly","FeedbackOnly","FeedbackOnly",5,"1",5,"InstructieToets","advancementZone","continue_button",21264.32,NA,NA,"",NA,"BotoxFeedbackOnly",NA
"15",1604434881603,1,"03/11/2020 21:21:21","BLIND",3464819,NA,"complete",NA,"5fa1b95885210a323c220fc6","computer","Desktop or Laptop","Windows 10","Firefox 82.0","1536x864","1536x750","FeedbackOnly","FeedbackOnly","FeedbackOnly",5,"1",6,"Test","buttonA","response_text_area",21264.32,NA,NA,"GZmLd",NA,"BotoxFeedbackOnly",NA
"16",1604434881605,1,"03/11/2020 21:21:21","BLIND",3464819,NA,"complete",NA,"5fa1b95885210a323c220fc6","computer","Desktop or Laptop","Windows 10","Firefox 82.0","1536x864","1536x750","FeedbackOnly","FeedbackOnly","FeedbackOnly",5,"1",6,"Test","buttonB","continue_button",21264.32,NA,NA,"",NA,"BotoxFeedbackOnly",NA
"17",1604434882891,1,"03/11/2020 21:21:22","BLIND",3464819,NA,"complete",NA,"5fa1b95885210a323c220fc6","computer","Desktop or Laptop","Windows 10","Firefox 82.0","1536x864","1536x750","FeedbackOnly","FeedbackOnly","FeedbackOnly",4,"2",1,"ReadyForNext","advancementZone","continue_button",21264.32,NA,NA,"",NA,"ReadyForNextTextScreen",NA
"18",1604434908315,1,"03/11/2020 21:21:48","BLIND",3464819,NA,"complete",NA,"5fa1b95885210a323c220fc6","computer","Desktop or Laptop","Windows 10","Firefox 82.0","1536x864","1536x750","FeedbackOnly","FeedbackOnly","FeedbackOnly",11,"1",1,"Text","advancementZone","continue_button",21264.32,NA,NA,"",NA,"SuezFeedbackOnly",NA
"19",1604434910236,1,"03/11/2020 21:21:50","BLIND",3464819,NA,"complete",NA,"5fa1b95885210a323c220fc6","computer","Desktop or Laptop","Windows 10","Firefox 82.0","1536x864","1536x750","FeedbackOnly","FeedbackOnly","FeedbackOnly",11,"1",2,"JoL1","Three","response_button_text",21264.32,NA,NA,"1",1,"SuezFeedbackOnly",NA
"2",1604434575806,1,"03/11/2020 21:16:15","BLIND",3464819,NA,"complete",NA,"5fa1b95885210a323c220fc6","computer","Desktop or Laptop","Windows 10","Firefox 82.0","1536x864","1536x750","FeedbackOnly","FeedbackOnly","FeedbackOnly",9,"1",1,"Text","advancementZone","continue_button",21264.32,NA,NA,"",NA,"GeldFeedbackOnly",NA
"20",1604434917213,1,"03/11/2020 21:21:57","BLIND",3464819,NA,"complete",NA,"5fa1b95885210a323c220fc6","computer","Desktop or Laptop","Windows 10","Firefox 82.0","1536x864","1536x750","FeedbackOnly","FeedbackOnly","FeedbackOnly",11,"1",3,"Feedback","Zone1","continue_button",21264.32,NA,NA,"",NA,"SuezFeedbackOnly",NA
"21",1604434918228,1,"03/11/2020 21:21:58","BLIND",3464819,NA,"complete",NA,"5fa1b95885210a323c220fc6","computer","Desktop or Laptop","Windows 10","Firefox 82.0","1536x864","1536x750","FeedbackOnly","FeedbackOnly","FeedbackOnly",11,"1",4,"JoL2","Four","response_button_text",21264.32,NA,NA,"1",1,"SuezFeedbackOnly",NA
"22",1604434919268,1,"03/11/2020 21:21:59","BLIND",3464819,NA,"complete",NA,"5fa1b95885210a323c220fc6","computer","Desktop or Laptop","Windows 10","Firefox 82.0","1536x864","1536x750","FeedbackOnly","FeedbackOnly","FeedbackOnly",11,"1",5,"InstructieToets","advancementZone","continue_button",21264.32,NA,NA,"",NA,"SuezFeedbackOnly",NA
"23",1604435046492,1,"03/11/2020 21:24:06","BLIND",3464819,NA,"complete",NA,"5fa1b95885210a323c220fc6","computer","Desktop or Laptop","Windows 10","Firefox 82.0","1536x864","1536x750","FeedbackOnly","FeedbackOnly","FeedbackOnly",11,"1",6,"Test","buttonA","response_text_area",21264.32,NA,NA,"nl8HaT",NA,"SuezFeedbackOnly",NA
"24",1604435046493,1,"03/11/2020 21:24:06","BLIND",3464819,NA,"complete",NA,"5fa1b95885210a323c220fc6","computer","Desktop or Laptop","Windows 10","Firefox 82.0","1536x864","1536x750","FeedbackOnly","FeedbackOnly","FeedbackOnly",11,"1",6,"Test","buttonB","continue_button",21264.32,NA,NA,"",NA,"SuezFeedbackOnly",NA
"25",1604435047540,1,"03/11/2020 21:24:07","BLIND",3464819,NA,"complete",NA,"5fa1b95885210a323c220fc6","computer","Desktop or Laptop","Windows 10","Firefox 82.0","1536x864","1536x750","FeedbackOnly","FeedbackOnly","FeedbackOnly",6,"3",1,"ReadyForNext","advancementZone","continue_button",21264.32,NA,NA,"",NA,"ReadyForNextTextScreen",NA
"26",1604435070597,1,"03/11/2020 21:24:30","BLIND",3464819,NA,"complete",NA,"5fa1b95885210a323c220fc6","computer","Desktop or Laptop","Windows 10","Firefox 82.0","1536x864","1536x750","FeedbackOnly","FeedbackOnly","FeedbackOnly",7,"1",1,"Text","advancementZone","continue_button",21264.32,NA,NA,"",NA,"MuziekFeedbackOnly",NA
"27",1604435072286,1,"03/11/2020 21:24:32","BLIND",3464819,NA,"complete",NA,"5fa1b95885210a323c220fc6","computer","Desktop or Laptop","Windows 10","Firefox 82.0","1536x864","1536x750","FeedbackOnly","FeedbackOnly","FeedbackOnly",7,"1",2,"JoL1","Two","response_button_text",21264.32,NA,NA,"1",1,"MuziekFeedbackOnly",NA
"28",1604435077366,1,"03/11/2020 21:24:37","BLIND",3464819,NA,"complete",NA,"5fa1b95885210a323c220fc6","computer","Desktop or Laptop","Windows 10","Firefox 82.0","1536x864","1536x750","FeedbackOnly","FeedbackOnly","FeedbackOnly",7,"1",3,"Feedback","Zone1","continue_button",21264.32,NA,NA,"",NA,"MuziekFeedbackOnly",NA
"29",1604435079039,1,"03/11/2020 21:24:39","BLIND",3464819,NA,"complete",NA,"5fa1b95885210a323c220fc6","computer","Desktop or Laptop","Windows 10","Firefox 82.0","1536x864","1536x750","FeedbackOnly","FeedbackOnly","FeedbackOnly",7,"1",4,"JoL2","Three","response_button_text",21264.32,NA,NA,"1",1,"MuziekFeedbackOnly",NA
"3",1604434578503,1,"03/11/2020 21:16:18","BLIND",3464819,NA,"complete",NA,"5fa1b95885210a323c220fc6","computer","Desktop or Laptop","Windows 10","Firefox 82.0","1536x864","1536x750","FeedbackOnly","FeedbackOnly","FeedbackOnly",9,"1",2,"JoL1","Three","response_button_text",21264.32,NA,NA,"1",1,"GeldFeedbackOnly",NA
"30",1604435080039,1,"03/11/2020 21:24:40","BLIND",3464819,NA,"complete",NA,"5fa1b95885210a323c220fc6","computer","Desktop or Laptop","Windows 10","Firefox 82.0","1536x864","1536x750","FeedbackOnly","FeedbackOnly","FeedbackOnly",7,"1",5,"InstructieToets","advancementZone","continue_button",21264.32,NA,NA,"",NA,"MuziekFeedbackOnly",NA
"31",1604435149905,1,"03/11/2020 21:25:49","BLIND",3464819,NA,"complete",NA,"5fa1b95885210a323c220fc6","computer","Desktop or Laptop","Windows 10","Firefox 82.0","1536x864","1536x750","FeedbackOnly","FeedbackOnly","FeedbackOnly",7,"1",6,"Test","buttonA","response_text_area",21264.32,NA,NA,"Lvdv3",NA,"MuziekFeedbackOnly",NA
"32",1604435149907,1,"03/11/2020 21:25:49","BLIND",3464819,NA,"complete",NA,"5fa1b95885210a323c220fc6","computer","Desktop or Laptop","Windows 10","Firefox 82.0","1536x864","1536x750","FeedbackOnly","FeedbackOnly","FeedbackOnly",7,"1",6,"Test","buttonB","continue_button",21264.32,NA,NA,"",NA,"MuziekFeedbackOnly",NA
"33",1604435150776,1,"03/11/2020 21:25:50","BLIND",3464819,NA,"complete",NA,"5fa1b95885210a323c220fc6","computer","Desktop or Laptop","Windows 10","Firefox 82.0","1536x864","1536x750","FeedbackOnly","FeedbackOnly","FeedbackOnly",8,"4",1,"ReadyForNext","advancementZone","continue_button",21264.32,NA,NA,"",NA,"ReadyForNextTextScreen",NA
"34",1604435173340,1,"03/11/2020 21:26:13","BLIND",3464819,NA,"complete",NA,"5fa1b95885210a323c220fc6","computer","Desktop or Laptop","Windows 10","Firefox 82.0","1536x864","1536x750","FeedbackOnly","FeedbackOnly","FeedbackOnly",3,"1",1,"Text","advancementZone","continue_button",21264.32,NA,NA,"",NA,"BetonFeedbackOnly",NA
"35",1604435175220,1,"03/11/2020 21:26:15","BLIND",3464819,NA,"complete",NA,"5fa1b95885210a323c220fc6","computer","Desktop or Laptop","Windows 10","Firefox 82.0","1536x864","1536x750","FeedbackOnly","FeedbackOnly","FeedbackOnly",3,"1",2,"JoL1","Three","response_button_text",21264.32,NA,NA,"1",1,"BetonFeedbackOnly",NA
"36",1604435178956,1,"03/11/2020 21:26:18","BLIND",3464819,NA,"complete",NA,"5fa1b95885210a323c220fc6","computer","Desktop or Laptop","Windows 10","Firefox 82.0","1536x864","1536x750","FeedbackOnly","FeedbackOnly","FeedbackOnly",3,"1",3,"Feedback","Zone1","continue_button",21264.32,NA,NA,"",NA,"BetonFeedbackOnly",NA
"37",1604435180380,1,"03/11/2020 21:26:20","BLIND",3464819,NA,"complete",NA,"5fa1b95885210a323c220fc6","computer","Desktop or Laptop","Windows 10","Firefox 82.0","1536x864","1536x750","FeedbackOnly","FeedbackOnly","FeedbackOnly",3,"1",4,"JoL2","Four","response_button_text",21264.32,NA,NA,"1",1,"BetonFeedbackOnly",NA
"38",1604435181198,1,"03/11/2020 21:26:21","BLIND",3464819,NA,"complete",NA,"5fa1b95885210a323c220fc6","computer","Desktop or Laptop","Windows 10","Firefox 82.0","1536x864","1536x750","FeedbackOnly","FeedbackOnly","FeedbackOnly",3,"1",5,"InstructieToets","advancementZone","continue_button",21264.32,NA,NA,"",NA,"BetonFeedbackOnly",NA
"39",1604435247095,1,"03/11/2020 21:27:27","BLIND",3464819,NA,"complete",NA,"5fa1b95885210a323c220fc6","computer","Desktop or Laptop","Windows 10","Firefox 82.0","1536x864","1536x750","FeedbackOnly","FeedbackOnly","FeedbackOnly",3,"1",6,"Test","buttonA","response_text_area",21264.32,NA,NA,"Mb",NA,"BetonFeedbackOnly",NA
"4",1604434585229,1,"03/11/2020 21:16:25","BLIND",3464819,NA,"complete",NA,"5fa1b95885210a323c220fc6","computer","Desktop or Laptop","Windows 10","Firefox 82.0","1536x864","1536x750","FeedbackOnly","FeedbackOnly","FeedbackOnly",9,"1",3,"Feedback","Zone1","continue_button",21264.32,NA,NA,"",NA,"GeldFeedbackOnly",NA
"40",1604435247097,1,"03/11/2020 21:27:27","BLIND",3464819,NA,"complete",NA,"5fa1b95885210a323c220fc6","computer","Desktop or Laptop","Windows 10","Firefox 82.0","1536x864","1536x750","FeedbackOnly","FeedbackOnly","FeedbackOnly",3,"1",6,"Test","buttonB","continue_button",21264.32,NA,NA,"",NA,"BetonFeedbackOnly",NA
"41",1604435247785,1,"03/11/2020 21:27:27","BLIND",3464819,NA,"complete",NA,"5fa1b95885210a323c220fc6","computer","Desktop or Laptop","Windows 10","Firefox 82.0","1536x864","1536x750","FeedbackOnly","FeedbackOnly","FeedbackOnly",10,"5",1,"ReadyForNext","advancementZone","continue_button",21264.32,NA,NA,"",NA,"ReadyForNextTextScreen",NA
"42",1604435274724,1,"03/11/2020 21:27:54","BLIND",3464819,NA,"complete",NA,"5fa1b95885210a323c220fc6","computer","Desktop or Laptop","Windows 10","Firefox 82.0","1536x864","1536x750","FeedbackOnly","FeedbackOnly","FeedbackOnly",1,"1",1,"Text","advancementZone","continue_button",21264.32,NA,NA,"",NA,"MetroFeedbackOnly",NA
"43",1604435276419,1,"03/11/2020 21:27:56","BLIND",3464819,NA,"complete",NA,"5fa1b95885210a323c220fc6","computer","Desktop or Laptop","Windows 10","Firefox 82.0","1536x864","1536x750","FeedbackOnly","FeedbackOnly","FeedbackOnly",1,"1",2,"JoL1","Three","response_button_text",21264.32,NA,NA,"1",1,"MetroFeedbackOnly",NA
"44",1604435282741,1,"03/11/2020 21:28:02","BLIND",3464819,NA,"complete",NA,"5fa1b95885210a323c220fc6","computer","Desktop or Laptop","Windows 10","Firefox 82.0","1536x864","1536x750","FeedbackOnly","FeedbackOnly","FeedbackOnly",1,"1",3,"Feedback","Zone1","continue_button",21264.32,NA,NA,"",NA,"MetroFeedbackOnly",NA
"45",1604435284508,1,"03/11/2020 21:28:04","BLIND",3464819,NA,"complete",NA,"5fa1b95885210a323c220fc6","computer","Desktop or Laptop","Windows 10","Firefox 82.0","1536x864","1536x750","FeedbackOnly","FeedbackOnly","FeedbackOnly",1,"1",4,"JoL2","Four","response_button_text",21264.32,NA,NA,"1",1,"MetroFeedbackOnly",NA
"46",1604435285590,1,"03/11/2020 21:28:05","BLIND",3464819,NA,"complete",NA,"5fa1b95885210a323c220fc6","computer","Desktop or Laptop","Windows 10","Firefox 82.0","1536x864","1536x750","FeedbackOnly","FeedbackOnly","FeedbackOnly",1,"1",5,"InstructieToets","advancementZone","continue_button",21264.32,NA,NA,"",NA,"MetroFeedbackOnly",NA
"47",1604435417137,1,"03/11/2020 21:30:17","BLIND",3464819,NA,"complete",NA,"5fa1b95885210a323c220fc6","computer","Desktop or Laptop","Windows 10","Firefox 82.0","1536x864","1536x750","FeedbackOnly","FeedbackOnly","FeedbackOnly",1,"1",6,"Test","buttonA","response_text_area",21264.32,NA,NA,"8hN",NA,"MetroFeedbackOnly",NA
"48",1604435417138,1,"03/11/2020 21:30:17","BLIND",3464819,NA,"complete",NA,"5fa1b95885210a323c220fc6","computer","Desktop or Laptop","Windows 10","Firefox 82.0","1536x864","1536x750","FeedbackOnly","FeedbackOnly","FeedbackOnly",1,"1",6,"Test","buttonB","continue_button",21264.32,NA,NA,"",NA,"MetroFeedbackOnly",NA
"49",1604435417141,1,"03/11/2020 21:30:17","BLIND",3464819,NA,"complete",NA,"5fa1b95885210a323c220fc6","computer","Desktop or Laptop","Windows 10","Firefox 82.0","1536x864","1536x750","FeedbackOnly","FeedbackOnly","",NA,"END TASK",NA,"","","",865991,NA,NA,"",NA,"",NA
"5",1604434587007,1,"03/11/2020 21:16:27","BLIND",3464819,NA,"complete",NA,"5fa1b95885210a323c220fc6","computer","Desktop or Laptop","Windows 10","Firefox 82.0","1536x864","1536x750","FeedbackOnly","FeedbackOnly","FeedbackOnly",9,"1",4,"JoL2","Three","response_button_text",21264.32,NA,NA,"1",1,"GeldFeedbackOnly",NA
"6",1604434588062,1,"03/11/2020 21:16:28","BLIND",3464819,NA,"complete",NA,"5fa1b95885210a323c220fc6","computer","Desktop or Laptop","Windows 10","Firefox 82.0","1536x864","1536x750","FeedbackOnly","FeedbackOnly","FeedbackOnly",9,"1",5,"ToetsInstructies","advancementZone","continue_button",21264.32,NA,NA,"",NA,"GeldFeedbackOnly",NA
"7",1604434716271,1,"03/11/2020 21:18:36","BLIND",3464819,NA,"complete",NA,"5fa1b95885210a323c220fc6","computer","Desktop or Laptop","Windows 10","Firefox 82.0","1536x864","1536x750","FeedbackOnly","FeedbackOnly","FeedbackOnly",9,"1",6,"Test","buttonA","response_text_area",21264.32,NA,NA,"Ry5t",NA,"GeldFeedbackOnly",NA
"8",1604434716272,1,"03/11/2020 21:18:36","BLIND",3464819,NA,"complete",NA,"5fa1b95885210a323c220fc6","computer","Desktop or Laptop","Windows 10","Firefox 82.0","1536x864","1536x750","FeedbackOnly","FeedbackOnly","FeedbackOnly",9,"1",6,"Test","buttonB","continue_button",21264.32,NA,NA,"",NA,"GeldFeedbackOnly",NA
"9",1604434718439,1,"03/11/2020 21:18:38","BLIND",3464819,NA,"complete",NA,"5fa1b95885210a323c220fc6","computer","Desktop or Laptop","Windows 10","Firefox 82.0","1536x864","1536x750","FeedbackOnly","FeedbackOnly","FeedbackOnly",2,"1",1,"ReadyForNext","advancementZone","continue_button",21264.32,NA,NA,"",NA,"ReadyForNextTextScreen",NA
"1",1604418888356,1,"03/11/2020 16:54:48","BLIND",3903094,NA,"complete",NA,"5fa17b23b76ab21415cdba45","computer","Desktop or Laptop","Windows 10","Chrome 86.0.4240.111","1280x720","1280x610","FeedbackOnly","FeedbackOnly","",NA,"BEGIN TASK",NA,"","","",NA,NA,NA,"",NA,"",NA
"10",1604419293972,1,"03/11/2020 17:01:33","BLIND",3903094,NA,"complete",NA,"5fa17b23b76ab21415cdba45","computer","Desktop or Laptop","Windows 10","Chrome 86.0.4240.111","1280x720","882x600","FeedbackOnly","FeedbackOnly","FeedbackOnly",5,"1",1,"Text","advancementZone","continue_button",21264.32,NA,NA,"",NA,"BotoxFeedbackOnly",NA
"11",1604419298492,1,"03/11/2020 17:01:38","BLIND",3903094,NA,"complete",NA,"5fa17b23b76ab21415cdba45","computer","Desktop or Laptop","Windows 10","Chrome 86.0.4240.111","1280x720","882x600","FeedbackOnly","FeedbackOnly","FeedbackOnly",5,"1",2,"JoL1","Two","response_button_text",21264.32,NA,NA,"1",1,"BotoxFeedbackOnly",NA
"12",1604419390759,1,"03/11/2020 17:03:10","BLIND",3903094,NA,"complete",NA,"5fa17b23b76ab21415cdba45","computer","Desktop or Laptop","Windows 10","Chrome 86.0.4240.111","1280x720","882x600","FeedbackOnly","FeedbackOnly","FeedbackOnly",5,"1",3,"Feedback","Zone1","continue_button",21264.32,NA,NA,"",NA,"BotoxFeedbackOnly",NA
"13",1604419394287,1,"03/11/2020 17:03:14","BLIND",3903094,NA,"complete",NA,"5fa17b23b76ab21415cdba45","computer","Desktop or Laptop","Windows 10","Chrome 86.0.4240.111","1280x720","882x600","FeedbackOnly","FeedbackOnly","FeedbackOnly",5,"1",4,"JoL2","Three","response_button_text",21264.32,NA,NA,"1",1,"BotoxFeedbackOnly",NA
"14",1604419398064,1,"03/11/2020 17:03:18","BLIND",3903094,NA,"complete",NA,"5fa17b23b76ab21415cdba45","computer","Desktop or Laptop","Windows 10","Chrome 86.0.4240.111","1280x720","882x600","FeedbackOnly","FeedbackOnly","FeedbackOnly",5,"1",5,"InstructieToets","advancementZone","continue_button",21264.32,NA,NA,"",NA,"BotoxFeedbackOnly",NA
"15",1604419459082,1,"03/11/2020 17:04:19","BLIND",3903094,NA,"complete",NA,"5fa17b23b76ab21415cdba45","computer","Desktop or Laptop","Windows 10","Chrome 86.0.4240.111","1280x720","882x600","FeedbackOnly","FeedbackOnly","FeedbackOnly",5,"1",6,"Test","buttonA","response_text_area",21264.32,NA,NA,"md67XISOVf",NA,"BotoxFeedbackOnly",NA
"16",1604419459084,1,"03/11/2020 17:04:19","BLIND",3903094,NA,"complete",NA,"5fa17b23b76ab21415cdba45","computer","Desktop or Laptop","Windows 10","Chrome 86.0.4240.111","1280x720","882x600","FeedbackOnly","FeedbackOnly","FeedbackOnly",5,"1",6,"Test","buttonB","continue_button",21264.32,NA,NA,"",NA,"BotoxFeedbackOnly",NA
"17",1604419461956,1,"03/11/2020 17:04:21","BLIND",3903094,NA,"complete",NA,"5fa17b23b76ab21415cdba45","computer","Desktop or Laptop","Windows 10","Chrome 86.0.4240.111","1280x720","882x600","FeedbackOnly","FeedbackOnly","FeedbackOnly",4,"2",1,"ReadyForNext","advancementZone","continue_button",21264.32,NA,NA,"",NA,"ReadyForNextTextScreen",NA
"18",1604419602195,1,"03/11/2020 17:06:42","BLIND",3903094,NA,"complete",NA,"5fa17b23b76ab21415cdba45","computer","Desktop or Laptop","Windows 10","Chrome 86.0.4240.111","1280x720","882x600","FeedbackOnly","FeedbackOnly","FeedbackOnly",3,"1",1,"Text","advancementZone","continue_button",21264.32,NA,NA,"",NA,"BetonFeedbackOnly",NA
"19",1604419608361,1,"03/11/2020 17:06:48","BLIND",3903094,NA,"complete",NA,"5fa17b23b76ab21415cdba45","computer","Desktop or Laptop","Windows 10","Chrome 86.0.4240.111","1280x720","882x600","FeedbackOnly","FeedbackOnly","FeedbackOnly",3,"1",2,"JoL1","Two","response_button_text",21264.32,NA,NA,"1",1,"BetonFeedbackOnly",NA
"2",1604419048593,1,"03/11/2020 16:57:28","BLIND",3903094,NA,"complete",NA,"5fa17b23b76ab21415cdba45","computer","Desktop or Laptop","Windows 10","Chrome 86.0.4240.111","1280x720","1280x610","FeedbackOnly","FeedbackOnly","FeedbackOnly",7,"1",1,"Text","advancementZone","continue_button",21264.32,NA,NA,"",NA,"MuziekFeedbackOnly",NA
"20",1604419645261,1,"03/11/2020 17:07:25","BLIND",3903094,NA,"complete",NA,"5fa17b23b76ab21415cdba45","computer","Desktop or Laptop","Windows 10","Chrome 86.0.4240.111","1280x720","882x600","FeedbackOnly","FeedbackOnly","FeedbackOnly",3,"1",3,"Feedback","Zone1","continue_button",21264.32,NA,NA,"",NA,"BetonFeedbackOnly",NA
"21",1604419650340,1,"03/11/2020 17:07:30","BLIND",3903094,NA,"complete",NA,"5fa17b23b76ab21415cdba45","computer","Desktop or Laptop","Windows 10","Chrome 86.0.4240.111","1280x720","882x600","FeedbackOnly","FeedbackOnly","FeedbackOnly",3,"1",4,"JoL2","Three","response_button_text",21264.32,NA,NA,"1",1,"BetonFeedbackOnly",NA
"22",1604419652744,1,"03/11/2020 17:07:32","BLIND",3903094,NA,"complete",NA,"5fa17b23b76ab21415cdba45","computer","Desktop or Laptop","Windows 10","Chrome 86.0.4240.111","1280x720","882x600","FeedbackOnly","FeedbackOnly","FeedbackOnly",3,"1",5,"InstructieToets","advancementZone","continue_button",21264.32,NA,NA,"",NA,"BetonFeedbackOnly",NA
"23",1604419720587,1,"03/11/2020 17:08:40","BLIND",3903094,NA,"complete",NA,"5fa17b23b76ab21415cdba45","computer","Desktop or Laptop","Windows 10","Chrome 86.0.4240.111","1280x720","882x600","FeedbackOnly","FeedbackOnly","FeedbackOnly",3,"1",6,"Test","buttonA","response_text_area",21264.32,NA,NA,"kb6d",NA,"BetonFeedbackOnly",NA
"24",1604419720589,1,"03/11/2020 17:08:40","BLIND",3903094,NA,"complete",NA,"5fa17b23b76ab21415cdba45","computer","Desktop or Laptop","Windows 10","Chrome 86.0.4240.111","1280x720","882x600","FeedbackOnly","FeedbackOnly","FeedbackOnly",3,"1",6,"Test","buttonB","continue_button",21264.32,NA,NA,"",NA,"BetonFeedbackOnly",NA
"25",1604419723438,1,"03/11/2020 17:08:43","BLIND",3903094,NA,"complete",NA,"5fa17b23b76ab21415cdba45","computer","Desktop or Laptop","Windows 10","Chrome 86.0.4240.111","1280x720","882x600","FeedbackOnly","FeedbackOnly","FeedbackOnly",6,"3",1,"ReadyForNext","advancementZone","continue_button",21264.32,NA,NA,"",NA,"ReadyForNextTextScreen",NA
"26",1604419859276,1,"03/11/2020 17:10:59","BLIND",3903094,NA,"complete",NA,"5fa17b23b76ab21415cdba45","computer","Desktop or Laptop","Windows 10","Chrome 86.0.4240.111","1280x720","882x600","FeedbackOnly","FeedbackOnly","FeedbackOnly",1,"1",1,"Text","advancementZone","continue_button",21264.32,NA,NA,"",NA,"MetroFeedbackOnly",NA
"27",1604419860530,1,"03/11/2020 17:11:00","BLIND",3903094,NA,"complete",NA,"5fa17b23b76ab21415cdba45","computer","Desktop or Laptop","Windows 10","Chrome 86.0.4240.111","1280x720","882x600","FeedbackOnly","FeedbackOnly","FeedbackOnly",1,"1",2,"JoL1","Three","response_button_text",21264.32,NA,NA,"1",1,"MetroFeedbackOnly",NA
"28",1604419883473,1,"03/11/2020 17:11:23","BLIND",3903094,NA,"complete",NA,"5fa17b23b76ab21415cdba45","computer","Desktop or Laptop","Windows 10","Chrome 86.0.4240.111","1280x720","882x600","FeedbackOnly","FeedbackOnly","FeedbackOnly",1,"1",3,"Feedback","Zone1","continue_button",21264.32,NA,NA,"",NA,"MetroFeedbackOnly",NA
"29",1604419884384,1,"03/11/2020 17:11:24","BLIND",3903094,NA,"complete",NA,"5fa17b23b76ab21415cdba45","computer","Desktop or Laptop","Windows 10","Chrome 86.0.4240.111","1280x720","882x600","FeedbackOnly","FeedbackOnly","FeedbackOnly",1,"1",4,"JoL2","Three","response_button_text",21264.32,NA,NA,"1",1,"MetroFeedbackOnly",NA
"3",1604419052295,1,"03/11/2020 16:57:32","BLIND",3903094,NA,"complete",NA,"5fa17b23b76ab21415cdba45","computer","Desktop or Laptop","Windows 10","Chrome 86.0.4240.111","1280x720","1280x610","FeedbackOnly","FeedbackOnly","FeedbackOnly",7,"1",2,"JoL1","Two","response_button_text",21264.32,NA,NA,"1",1,"MuziekFeedbackOnly",NA
"30",1604419885803,1,"03/11/2020 17:11:25","BLIND",3903094,NA,"complete",NA,"5fa17b23b76ab21415cdba45","computer","Desktop or Laptop","Windows 10","Chrome 86.0.4240.111","1280x720","882x600","FeedbackOnly","FeedbackOnly","FeedbackOnly",1,"1",5,"InstructieToets","advancementZone","continue_button",21264.32,NA,NA,"",NA,"MetroFeedbackOnly",NA
"31",1604419960473,1,"03/11/2020 17:12:40","BLIND",3903094,NA,"complete",NA,"5fa17b23b76ab21415cdba45","computer","Desktop or Laptop","Windows 10","Chrome 86.0.4240.111","1280x720","882x600","FeedbackOnly","FeedbackOnly","FeedbackOnly",1,"1",6,"Test","buttonA","response_text_area",21264.32,NA,NA,"vxFh2Tgvs",NA,"MetroFeedbackOnly",NA
"32",1604419960474,1,"03/11/2020 17:12:40","BLIND",3903094,NA,"complete",NA,"5fa17b23b76ab21415cdba45","computer","Desktop or Laptop","Windows 10","Chrome 86.0.4240.111","1280x720","882x600","FeedbackOnly","FeedbackOnly","FeedbackOnly",1,"1",6,"Test","buttonB","continue_button",21264.32,NA,NA,"",NA,"MetroFeedbackOnly",NA
"33",1604419962284,1,"03/11/2020 17:12:42","BLIND",3903094,NA,"complete",NA,"5fa17b23b76ab21415cdba45","computer","Desktop or Laptop","Windows 10","Chrome 86.0.4240.111","1280x720","882x600","FeedbackOnly","FeedbackOnly","FeedbackOnly",8,"4",1,"ReadyForNext","advancementZone","continue_button",21264.32,NA,NA,"",NA,"ReadyForNextTextScreen",NA
"34",1604420027612,1,"03/11/2020 17:13:47","BLIND",3903094,NA,"complete",NA,"5fa17b23b76ab21415cdba45","computer","Desktop or Laptop","Windows 10","Chrome 86.0.4240.111","1280x720","882x600","FeedbackOnly","FeedbackOnly","FeedbackOnly",9,"1",1,"Text","advancementZone","continue_button",21264.32,NA,NA,"",NA,"GeldFeedbackOnly",NA
"35",1604420030999,1,"03/11/2020 17:13:50","BLIND",3903094,NA,"complete",NA,"5fa17b23b76ab21415cdba45","computer","Desktop or Laptop","Windows 10","Chrome 86.0.4240.111","1280x720","882x600","FeedbackOnly","FeedbackOnly","FeedbackOnly",9,"1",2,"JoL1","One","response_button_text",21264.32,NA,NA,"1",1,"GeldFeedbackOnly",NA
"36",1604420085602,1,"03/11/2020 17:14:45","BLIND",3903094,NA,"complete",NA,"5fa17b23b76ab21415cdba45","computer","Desktop or Laptop","Windows 10","Chrome 86.0.4240.111","1280x720","882x600","FeedbackOnly","FeedbackOnly","FeedbackOnly",9,"1",3,"Feedback","Zone1","continue_button",21264.32,NA,NA,"",NA,"GeldFeedbackOnly",NA
"37",1604420088151,1,"03/11/2020 17:14:48","BLIND",3903094,NA,"complete",NA,"5fa17b23b76ab21415cdba45","computer","Desktop or Laptop","Windows 10","Chrome 86.0.4240.111","1280x720","882x600","FeedbackOnly","FeedbackOnly","FeedbackOnly",9,"1",4,"JoL2","Two","response_button_text",21264.32,NA,NA,"1",1,"GeldFeedbackOnly",NA
"38",1604420091211,1,"03/11/2020 17:14:51","BLIND",3903094,NA,"complete",NA,"5fa17b23b76ab21415cdba45","computer","Desktop or Laptop","Windows 10","Chrome 86.0.4240.111","1280x720","882x600","FeedbackOnly","FeedbackOnly","FeedbackOnly",9,"1",5,"ToetsInstructies","advancementZone","continue_button",21264.32,NA,NA,"",NA,"GeldFeedbackOnly",NA
"39",1604420168487,1,"03/11/2020 17:16:08","BLIND",3903094,NA,"complete",NA,"5fa17b23b76ab21415cdba45","computer","Desktop or Laptop","Windows 10","Chrome 86.0.4240.111","1280x720","882x600","FeedbackOnly","FeedbackOnly","FeedbackOnly",9,"1",6,"Test","buttonA","response_text_area",21264.32,NA,NA,"lKm9O",NA,"GeldFeedbackOnly",NA
"4",1604419060166,1,"03/11/2020 16:57:40","BLIND",3903094,NA,"complete",NA,"5fa17b23b76ab21415cdba45","computer","Desktop or Laptop","Windows 10","Chrome 86.0.4240.111","1280x720","1280x610","FeedbackOnly","FeedbackOnly","FeedbackOnly",7,"1",3,"Feedback","Zone1","continue_button",21264.32,NA,NA,"",NA,"MuziekFeedbackOnly",NA
"40",1604420168489,1,"03/11/2020 17:16:08","BLIND",3903094,NA,"complete",NA,"5fa17b23b76ab21415cdba45","computer","Desktop or Laptop","Windows 10","Chrome 86.0.4240.111","1280x720","882x600","FeedbackOnly","FeedbackOnly","FeedbackOnly",9,"1",6,"Test","buttonB","continue_button",21264.32,NA,NA,"",NA,"GeldFeedbackOnly",NA
"41",1604420171428,1,"03/11/2020 17:16:11","BLIND",3903094,NA,"complete",NA,"5fa17b23b76ab21415cdba45","computer","Desktop or Laptop","Windows 10","Chrome 86.0.4240.111","1280x720","882x600","FeedbackOnly","FeedbackOnly","FeedbackOnly",10,"5",1,"ReadyForNext","advancementZone","continue_button",21264.32,NA,NA,"",NA,"ReadyForNextTextScreen",NA
"42",1604420273985,1,"03/11/2020 17:17:53","BLIND",3903094,NA,"complete",NA,"5fa17b23b76ab21415cdba45","computer","Desktop or Laptop","Windows 10","Chrome 86.0.4240.111","1280x720","882x600","FeedbackOnly","FeedbackOnly","FeedbackOnly",11,"1",1,"Text","advancementZone","continue_button",21264.32,NA,NA,"",NA,"SuezFeedbackOnly",NA
"43",1604420276137,1,"03/11/2020 17:17:56","BLIND",3903094,NA,"complete",NA,"5fa17b23b76ab21415cdba45","computer","Desktop or Laptop","Windows 10","Chrome 86.0.4240.111","1280x720","882x600","FeedbackOnly","FeedbackOnly","FeedbackOnly",11,"1",2,"JoL1","Two","response_button_text",21264.32,NA,NA,"1",1,"SuezFeedbackOnly",NA
"44",1604420311250,1,"03/11/2020 17:18:31","BLIND",3903094,NA,"complete",NA,"5fa17b23b76ab21415cdba45","computer","Desktop or Laptop","Windows 10","Chrome 86.0.4240.111","1280x720","882x600","FeedbackOnly","FeedbackOnly","FeedbackOnly",11,"1",3,"Feedback","Zone1","continue_button",21264.32,NA,NA,"",NA,"SuezFeedbackOnly",NA
"45",1604420316425,1,"03/11/2020 17:18:36","BLIND",3903094,NA,"complete",NA,"5fa17b23b76ab21415cdba45","computer","Desktop or Laptop","Windows 10","Chrome 86.0.4240.111","1280x720","882x600","FeedbackOnly","FeedbackOnly","FeedbackOnly",11,"1",4,"JoL2","Three","response_button_text",21264.32,NA,NA,"1",1,"SuezFeedbackOnly",NA
"46",1604420318042,1,"03/11/2020 17:18:38","BLIND",3903094,NA,"complete",NA,"5fa17b23b76ab21415cdba45","computer","Desktop or Laptop","Windows 10","Chrome 86.0.4240.111","1280x720","882x600","FeedbackOnly","FeedbackOnly","FeedbackOnly",11,"1",5,"InstructieToets","advancementZone","continue_button",21264.32,NA,NA,"",NA,"SuezFeedbackOnly",NA
"47",1604420411084,1,"03/11/2020 17:20:11","BLIND",3903094,NA,"complete",NA,"5fa17b23b76ab21415cdba45","computer","Desktop or Laptop","Windows 10","Chrome 86.0.4240.111","1280x720","882x600","FeedbackOnly","FeedbackOnly","FeedbackOnly",11,"1",6,"Test","buttonA","response_text_area",21264.32,NA,NA,"8WXlgVVvjQ",NA,"SuezFeedbackOnly",NA
"48",1604420411086,1,"03/11/2020 17:20:11","BLIND",3903094,NA,"complete",NA,"5fa17b23b76ab21415cdba45","computer","Desktop or Laptop","Windows 10","Chrome 86.0.4240.111","1280x720","882x600","FeedbackOnly","FeedbackOnly","FeedbackOnly",11,"1",6,"Test","buttonB","continue_button",21264.32,NA,NA,"",NA,"SuezFeedbackOnly",NA
"49",1604420411087,1,"03/11/2020 17:20:11","BLIND",3903094,NA,"complete",NA,"5fa17b23b76ab21415cdba45","computer","Desktop or Laptop","Windows 10","Chrome 86.0.4240.111","1280x720","882x600","FeedbackOnly","FeedbackOnly","",NA,"END TASK",NA,"","","",1522732,NA,NA,"",NA,"",NA
"5",1604419061051,1,"03/11/2020 16:57:41","BLIND",3903094,NA,"complete",NA,"5fa17b23b76ab21415cdba45","computer","Desktop or Laptop","Windows 10","Chrome 86.0.4240.111","1280x720","1280x610","FeedbackOnly","FeedbackOnly","FeedbackOnly",7,"1",4,"JoL2","Four","response_button_text",21264.32,NA,NA,"1",1,"MuziekFeedbackOnly",NA
"6",1604419064562,1,"03/11/2020 16:57:44","BLIND",3903094,NA,"complete",NA,"5fa17b23b76ab21415cdba45","computer","Desktop or Laptop","Windows 10","Chrome 86.0.4240.111","1280x720","1280x610","FeedbackOnly","FeedbackOnly","FeedbackOnly",7,"1",5,"InstructieToets","advancementZone","continue_button",21264.32,NA,NA,"",NA,"MuziekFeedbackOnly",NA
"7",1604419165973,1,"03/11/2020 16:59:25","BLIND",3903094,NA,"complete",NA,"5fa17b23b76ab21415cdba45","computer","Desktop or Laptop","Windows 10","Chrome 86.0.4240.111","1280x720","1280x610","FeedbackOnly","FeedbackOnly","FeedbackOnly",7,"1",6,"Test","buttonA","response_text_area",21264.32,NA,NA,"Ch2Yx",NA,"MuziekFeedbackOnly",NA
"8",1604419165975,1,"03/11/2020 16:59:25","BLIND",3903094,NA,"complete",NA,"5fa17b23b76ab21415cdba45","computer","Desktop or Laptop","Windows 10","Chrome 86.0.4240.111","1280x720","1280x610","FeedbackOnly","FeedbackOnly","FeedbackOnly",7,"1",6,"Test","buttonB","continue_button",21264.32,NA,NA,"",NA,"MuziekFeedbackOnly",NA
"9",1604419169105,1,"03/11/2020 16:59:29","BLIND",3903094,NA,"complete",NA,"5fa17b23b76ab21415cdba45","computer","Desktop or Laptop","Windows 10","Chrome 86.0.4240.111","1280x720","1280x610","FeedbackOnly","FeedbackOnly","FeedbackOnly",2,"1",1,"ReadyForNext","advancementZone","continue_button",21264.32,NA,NA,"",NA,"ReadyForNextTextScreen",NA
"1",1604099982657,1,"31/10/2020 00:19:42","BLIND",4264738,NA,"complete",NA,"5f9c9dae36d734170fd9af0c","computer","Desktop or Laptop","Windows 10","Chrome 86.0.4240.111","1920x1080","1920x969","FeedbackOnly","FeedbackOnly","",NA,"BEGIN TASK",NA,"","","",NA,NA,NA,"",NA,"",NA
"10",1604100339230,1,"31/10/2020 00:25:39","BLIND",4264738,NA,"complete",NA,"5f9c9dae36d734170fd9af0c","computer","Desktop or Laptop","Windows 10","Chrome 86.0.4240.111","1920x1080","1920x969","FeedbackOnly","FeedbackOnly","FeedbackOnly",9,"1",1,"Text","advancementZone","continue_button",21264.32,NA,NA,"",NA,"GeldFeedbackOnly",NA
"11",1604100340307,1,"31/10/2020 00:25:40","BLIND",4264738,NA,"complete",NA,"5f9c9dae36d734170fd9af0c","computer","Desktop or Laptop","Windows 10","Chrome 86.0.4240.111","1920x1080","1920x969","FeedbackOnly","FeedbackOnly","FeedbackOnly",9,"1",2,"JoL1","Three","response_button_text",21264.32,NA,NA,"1",1,"GeldFeedbackOnly",NA
"12",1604100354076,1,"31/10/2020 00:25:54","BLIND",4264738,NA,"complete",NA,"5f9c9dae36d734170fd9af0c","computer","Desktop or Laptop","Windows 10","Chrome 86.0.4240.111","1920x1080","1920x969","FeedbackOnly","FeedbackOnly","FeedbackOnly",9,"1",3,"Feedback","Zone1","continue_button",21264.32,NA,NA,"",NA,"GeldFeedbackOnly",NA
"13",1604100357823,1,"31/10/2020 00:25:57","BLIND",4264738,NA,"complete",NA,"5f9c9dae36d734170fd9af0c","computer","Desktop or Laptop","Windows 10","Chrome 86.0.4240.111","1920x1080","1920x969","FeedbackOnly","FeedbackOnly","FeedbackOnly",9,"1",4,"JoL2","Four","response_button_text",21264.32,NA,NA,"1",1,"GeldFeedbackOnly",NA
"14",1604100359010,1,"31/10/2020 00:25:59","BLIND",4264738,NA,"complete",NA,"5f9c9dae36d734170fd9af0c","computer","Desktop or Laptop","Windows 10","Chrome 86.0.4240.111","1920x1080","1920x969","FeedbackOnly","FeedbackOnly","FeedbackOnly",9,"1",5,"ToetsInstructies","advancementZone","continue_button",21264.32,NA,NA,"",NA,"GeldFeedbackOnly",NA
"15",1604100472967,1,"31/10/2020 00:27:52","BLIND",4264738,NA,"complete",NA,"5f9c9dae36d734170fd9af0c","computer","Desktop or Laptop","Windows 10","Chrome 86.0.4240.111","1920x1080","1920x969","FeedbackOnly","FeedbackOnly","FeedbackOnly",9,"1",6,"Test","buttonA","response_text_area",21264.32,NA,NA,"BuWnOoPK",NA,"GeldFeedbackOnly",NA
"16",1604100472974,1,"31/10/2020 00:27:52","BLIND",4264738,NA,"complete",NA,"5f9c9dae36d734170fd9af0c","computer","Desktop or Laptop","Windows 10","Chrome 86.0.4240.111","1920x1080","1920x969","FeedbackOnly","FeedbackOnly","FeedbackOnly",9,"1",6,"Test","buttonB","continue_button",21264.32,NA,NA,"",NA,"GeldFeedbackOnly",NA
"17",1604100474862,1,"31/10/2020 00:27:54","BLIND",4264738,NA,"complete",NA,"5f9c9dae36d734170fd9af0c","computer","Desktop or Laptop","Windows 10","Chrome 86.0.4240.111","1920x1080","1920x969","FeedbackOnly","FeedbackOnly","FeedbackOnly",4,"2",1,"ReadyForNext","advancementZone","continue_button",21264.32,NA,NA,"",NA,"ReadyForNextTextScreen",NA
