"Event_Index","Local_Timestamp","Local_Timezone","Local_Date","Participant_Public_ID","Participant_Private_ID","Participant_Starting_Group","Participant_Status","Participant_Completion_Code","Participant_External_Session_ID","Participant_Device_Type","Participant_Device","Participant_OS","Participant_Browser","Participant_Monitor_Size","Participant_Viewport_Size","randomiser_81rl","Spreadsheet","Spreadsheet_Name","Spreadsheet_Row","Trial_Number","Screen_Number","Screen_Name","Zone_Name","Zone_Type","Reaction_Time","Reaction_Onset","Response_Type","Response","Attempt","display","Diagram_Box_Require_Response"
"1",1605105152918,1,"11/11/2020 15:32:32","BLIND",1071064,NA,"complete",NA,"5fabf11c85a54d0b95e9da33","computer","Desktop or Laptop","Windows 10","Firefox 82.0","1920x1080","1920x966","PictureMapping","PictureMapping","",NA,"BEGIN TASK",NA,"","","",NA,NA,NA,"",NA,"",NA
"10",1605105304719,1,"11/11/2020 15:35:04","BLIND",1071064,NA,"complete",NA,"5fabf11c85a54d0b95e9da33","computer","Desktop or Laptop","Windows 10","Firefox 82.0","1920x1080","1920x966","PictureMapping","PictureMapping","PictureMapping",9,"1",7,"Test","buttonB","continue_button",25180.34,NA,NA,"",NA,"MuziekPictureMapping",NA
"11",1605105306982,1,"11/11/2020 15:35:06","BLIND",1071064,NA,"complete",NA,"5fabf11c85a54d0b95e9da33","computer","Desktop or Laptop","Windows 10","Firefox 82.0","1920x1080","1920x966","PictureMapping","PictureMapping","PictureMapping",2,"1",1,"ReadyForNext","advancementZone","continue_button",25180.34,NA,NA,"",NA,"ReadyForNextTextScreen",NA
"12",1605105337454,1,"11/11/2020 15:35:37","BLIND",1071064,NA,"complete",NA,"5fabf11c85a54d0b95e9da33","computer","Desktop or Laptop","Windows 10","Firefox 82.0","1920x1080","1920x966","PictureMapping","PictureMapping","PictureMapping",1,"1",1,"Text","advancementZone","continue_button",25180.34,NA,NA,"",NA,"MetroPictureMapping",NA
"13",1605105338749,1,"11/11/2020 15:35:38","BLIND",1071064,NA,"complete",NA,"5fabf11c85a54d0b95e9da33","computer","Desktop or Laptop","Windows 10","Firefox 82.0","1920x1080","1920x966","PictureMapping","PictureMapping","PictureMapping",1,"1",2,"JoL1","Three","response_button_text",25180.34,NA,NA,"1",1,"MetroPictureMapping",NA
"14",1605105340281,1,"11/11/2020 15:35:40","BLIND",1071064,NA,"complete",NA,"5fabf11c85a54d0b95e9da33","computer","Desktop or Laptop","Windows 10","Firefox 82.0","1920x1080","1920x966","PictureMapping","PictureMapping","PictureMapping",1,"1",3,"IntroPictureMapping","advancementZone","continue_keyboard",25180.34,NA,NA,"",NA,"MetroPictureMapping",NA
"15",1605105392614,1,"11/11/2020 15:36:32","BLIND",1071064,NA,"complete",NA,"5fabf11c85a54d0b95e9da33","computer","Desktop or Laptop","Windows 10","Firefox 82.0","1920x1080","1920x966","PictureMapping","PictureMapping","PictureMapping",1,"1",4,"PictureMapping","advancementZone","response_text_entry",25180.34,NA,NA,"4",NA,"MetroPictureMapping",NA
"16",1605105392616,1,"11/11/2020 15:36:32","BLIND",1071064,NA,"complete",NA,"5fabf11c85a54d0b95e9da33","computer","Desktop or Laptop","Windows 10","Firefox 82.0","1920x1080","1920x966","PictureMapping","PictureMapping","PictureMapping",1,"1",4,"PictureMapping","Zone1","continue_button",25180.34,NA,NA,"",NA,"MetroPictureMapping",NA
"17",1605105394126,1,"11/11/2020 15:36:34","BLIND",1071064,NA,"complete",NA,"5fabf11c85a54d0b95e9da33","computer","Desktop or Laptop","Windows 10","Firefox 82.0","1920x1080","1920x966","PictureMapping","PictureMapping","PictureMapping",1,"1",5,"JoL2","Three","response_button_text",25180.34,NA,NA,"1",1,"MetroPictureMapping",NA
"18",1605105395557,1,"11/11/2020 15:36:35","BLIND",1071064,NA,"complete",NA,"5fabf11c85a54d0b95e9da33","computer","Desktop or Laptop","Windows 10","Firefox 82.0","1920x1080","1920x966","PictureMapping","PictureMapping","PictureMapping",1,"1",6,"InstructieToets","advancementZone","continue_button",25180.34,NA,NA,"",NA,"MetroPictureMapping",NA
"19",1605105503231,1,"11/11/2020 15:38:23","BLIND",1071064,NA,"complete",NA,"5fabf11c85a54d0b95e9da33","computer","Desktop or Laptop","Windows 10","Firefox 82.0","1920x1080","1920x966","PictureMapping","PictureMapping","PictureMapping",1,"1",7,"Test","buttonA","response_text_area",25180.34,NA,NA,"js9",NA,"MetroPictureMapping",NA
"2",1605105186671,1,"11/11/2020 15:33:06","BLIND",1071064,NA,"complete",NA,"5fabf11c85a54d0b95e9da33","computer","Desktop or Laptop","Windows 10","Firefox 82.0","1920x1080","1920x966","PictureMapping","PictureMapping","PictureMapping",9,"1",1,"Text","advancementZone","continue_button",25180.34,NA,NA,"",NA,"MuziekPictureMapping",NA
"20",1605105503232,1,"11/11/2020 15:38:23","BLIND",1071064,NA,"complete",NA,"5fabf11c85a54d0b95e9da33","computer","Desktop or Laptop","Windows 10","Firefox 82.0","1920x1080","1920x966","PictureMapping","PictureMapping","PictureMapping",1,"1",7,"Test","buttonB","continue_button",25180.34,NA,NA,"",NA,"MetroPictureMapping",NA
"21",1605105504702,1,"11/11/2020 15:38:24","BLIND",1071064,NA,"complete",NA,"5fabf11c85a54d0b95e9da33","computer","Desktop or Laptop","Windows 10","Firefox 82.0","1920x1080","1920x966","PictureMapping","PictureMapping","PictureMapping",4,"2",1,"ReadyForNext","advancementZone","continue_button",25180.34,NA,NA,"",NA,"ReadyForNextTextScreen",NA
"22",1605105558566,1,"11/11/2020 15:39:18","BLIND",1071064,NA,"complete",NA,"5fabf11c85a54d0b95e9da33","computer","Desktop or Laptop","Windows 10","Firefox 82.0","1920x1080","1920x966","PictureMapping","PictureMapping","PictureMapping",11,"1",1,"Text","advancementZone","continue_button",25180.34,NA,NA,"",NA,"GeldPictureMapping",NA
"23",1605105561206,1,"11/11/2020 15:39:21","BLIND",1071064,NA,"complete",NA,"5fabf11c85a54d0b95e9da33","computer","Desktop or Laptop","Windows 10","Firefox 82.0","1920x1080","1920x966","PictureMapping","PictureMapping","PictureMapping",11,"1",2,"JoL1","Four","response_button_text",25180.34,NA,NA,"1",1,"GeldPictureMapping",NA
"24",1605105563653,1,"11/11/2020 15:39:23","BLIND",1071064,NA,"complete",NA,"5fabf11c85a54d0b95e9da33","computer","Desktop or Laptop","Windows 10","Firefox 82.0","1920x1080","1920x966","PictureMapping","PictureMapping","PictureMapping",11,"1",3,"IntroPictureMapping","advancementZone","continue_keyboard",25180.34,NA,NA,"",NA,"GeldPictureMapping",NA
"25",1605105601294,1,"11/11/2020 15:40:01","BLIND",1071064,NA,"complete",NA,"5fabf11c85a54d0b95e9da33","computer","Desktop or Laptop","Windows 10","Firefox 82.0","1920x1080","1920x966","PictureMapping","PictureMapping","PictureMapping",11,"1",4,"PictureMapping","advancementZone","response_text_entry",25180.34,NA,NA,"3",NA,"GeldPictureMapping",NA
"26",1605105601295,1,"11/11/2020 15:40:01","BLIND",1071064,NA,"complete",NA,"5fabf11c85a54d0b95e9da33","computer","Desktop or Laptop","Windows 10","Firefox 82.0","1920x1080","1920x966","PictureMapping","PictureMapping","PictureMapping",11,"1",4,"PictureMapping","Zone1","continue_button",25180.34,NA,NA,"",NA,"GeldPictureMapping",NA
"27",1605105602605,1,"11/11/2020 15:40:02","BLIND",1071064,NA,"complete",NA,"5fabf11c85a54d0b95e9da33","computer","Desktop or Laptop","Windows 10","Firefox 82.0","1920x1080","1920x966","PictureMapping","PictureMapping","PictureMapping",11,"1",5,"JoL2","Four","response_button_text",25180.34,NA,NA,"1",1,"GeldPictureMapping",NA
"28",1605105604045,1,"11/11/2020 15:40:04","BLIND",1071064,NA,"complete",NA,"5fabf11c85a54d0b95e9da33","computer","Desktop or Laptop","Windows 10","Firefox 82.0","1920x1080","1920x966","PictureMapping","PictureMapping","PictureMapping",11,"1",6,"ToetsInstructie","advancementZone","continue_button",25180.34,NA,NA,"",NA,"GeldPictureMapping",NA
"29",1605105686278,1,"11/11/2020 15:41:26","BLIND",1071064,NA,"complete",NA,"5fabf11c85a54d0b95e9da33","computer","Desktop or Laptop","Windows 10","Firefox 82.0","1920x1080","1920x966","PictureMapping","PictureMapping","PictureMapping",11,"1",7,"Test","buttonA","response_text_area",25180.34,NA,NA,"H55RZQ",NA,"GeldPictureMapping",NA
"3",1605105187942,1,"11/11/2020 15:33:07","BLIND",1071064,NA,"complete",NA,"5fabf11c85a54d0b95e9da33","computer","Desktop or Laptop","Windows 10","Firefox 82.0","1920x1080","1920x966","PictureMapping","PictureMapping","PictureMapping",9,"1",2,"JoL1","Two","response_button_text",25180.34,NA,NA,"1",1,"MuziekPictureMapping",NA
"30",1605105686280,1,"11/11/2020 15:41:26","BLIND",1071064,NA,"complete",NA,"5fabf11c85a54d0b95e9da33","computer","Desktop or Laptop","Windows 10","Firefox 82.0","1920x1080","1920x966","PictureMapping","PictureMapping","PictureMapping",11,"1",7,"Test","buttonB","continue_button",25180.34,NA,NA,"",NA,"GeldPictureMapping",NA
"31",1605105687557,1,"11/11/2020 15:41:27","BLIND",1071064,NA,"complete",NA,"5fabf11c85a54d0b95e9da33","computer","Desktop or Laptop","Windows 10","Firefox 82.0","1920x1080","1920x966","PictureMapping","PictureMapping","PictureMapping",6,"3",1,"ReadyForNext","advancementZone","continue_button",25180.34,NA,NA,"",NA,"ReadyForNextTextScreen",NA
"32",1605105731341,1,"11/11/2020 15:42:11","BLIND",1071064,NA,"complete",NA,"5fabf11c85a54d0b95e9da33","computer","Desktop or Laptop","Windows 10","Firefox 82.0","1920x1080","1920x966","PictureMapping","PictureMapping","PictureMapping",3,"1",1,"Text","advancementZone","continue_button",25180.34,NA,NA,"",NA,"BetonPictureMapping",NA
"33",1605105732790,1,"11/11/2020 15:42:12","BLIND",1071064,NA,"complete",NA,"5fabf11c85a54d0b95e9da33","computer","Desktop or Laptop","Windows 10","Firefox 82.0","1920x1080","1920x966","PictureMapping","PictureMapping","PictureMapping",3,"1",2,"JoL1","Three","response_button_text",25180.34,NA,NA,"1",1,"BetonPictureMapping",NA
"34",1605105734094,1,"11/11/2020 15:42:14","BLIND",1071064,NA,"complete",NA,"5fabf11c85a54d0b95e9da33","computer","Desktop or Laptop","Windows 10","Firefox 82.0","1920x1080","1920x966","PictureMapping","PictureMapping","PictureMapping",3,"1",3,"IntroPictureMapping","advancementZone","continue_keyboard",25180.34,NA,NA,"",NA,"BetonPictureMapping",NA
"35",1605105806886,1,"11/11/2020 15:43:26","BLIND",1071064,NA,"complete",NA,"5fabf11c85a54d0b95e9da33","computer","Desktop or Laptop","Windows 10","Firefox 82.0","1920x1080","1920x966","PictureMapping","PictureMapping","PictureMapping",3,"1",4,"PictureMapping","advancementZone","response_text_entry",25180.34,NA,NA,"6",NA,"BetonPictureMapping",NA
"36",1605105806888,1,"11/11/2020 15:43:26","BLIND",1071064,NA,"complete",NA,"5fabf11c85a54d0b95e9da33","computer","Desktop or Laptop","Windows 10","Firefox 82.0","1920x1080","1920x966","PictureMapping","PictureMapping","PictureMapping",3,"1",4,"PictureMapping","Zone1","continue_button",25180.34,NA,NA,"",NA,"BetonPictureMapping",NA
"37",1605105808629,1,"11/11/2020 15:43:28","BLIND",1071064,NA,"complete",NA,"5fabf11c85a54d0b95e9da33","computer","Desktop or Laptop","Windows 10","Firefox 82.0","1920x1080","1920x966","PictureMapping","PictureMapping","PictureMapping",3,"1",5,"JoL2","Three","response_button_text",25180.34,NA,NA,"1",1,"BetonPictureMapping",NA
"38",1605105809693,1,"11/11/2020 15:43:29","BLIND",1071064,NA,"complete",NA,"5fabf11c85a54d0b95e9da33","computer","Desktop or Laptop","Windows 10","Firefox 82.0","1920x1080","1920x966","PictureMapping","PictureMapping","PictureMapping",3,"1",6,"InstructieToets","advancementZone","continue_button",25180.34,NA,NA,"",NA,"BetonPictureMapping",NA
"39",1605105869678,1,"11/11/2020 15:44:29","BLIND",1071064,NA,"complete",NA,"5fabf11c85a54d0b95e9da33","computer","Desktop or Laptop","Windows 10","Firefox 82.0","1920x1080","1920x966","PictureMapping","PictureMapping","PictureMapping",3,"1",7,"Test","buttonA","response_text_area",25180.34,NA,NA,"V3rQJt5t",NA,"BetonPictureMapping",NA
"4",1605105189574,1,"11/11/2020 15:33:09","BLIND",1071064,NA,"complete",NA,"5fabf11c85a54d0b95e9da33","computer","Desktop or Laptop","Windows 10","Firefox 82.0","1920x1080","1920x966","PictureMapping","PictureMapping","PictureMapping",9,"1",3,"IntroPictureMapping","advancementZone","continue_keyboard",25180.34,NA,NA,"",NA,"MuziekPictureMapping",NA
"40",1605105869679,1,"11/11/2020 15:44:29","BLIND",1071064,NA,"complete",NA,"5fabf11c85a54d0b95e9da33","computer","Desktop or Laptop","Windows 10","Firefox 82.0","1920x1080","1920x966","PictureMapping","PictureMapping","PictureMapping",3,"1",7,"Test","buttonB","continue_button",25180.34,NA,NA,"",NA,"BetonPictureMapping",NA
"41",1605105871046,1,"11/11/2020 15:44:31","BLIND",1071064,NA,"complete",NA,"5fabf11c85a54d0b95e9da33","computer","Desktop or Laptop","Windows 10","Firefox 82.0","1920x1080","1920x966","PictureMapping","PictureMapping","PictureMapping",8,"4",1,"ReadyForNext","advancementZone","continue_button",25180.34,NA,NA,"",NA,"ReadyForNextTextScreen",NA
"42",1605105906774,1,"11/11/2020 15:45:06","BLIND",1071064,NA,"complete",NA,"5fabf11c85a54d0b95e9da33","computer","Desktop or Laptop","Windows 10","Firefox 82.0","1920x1080","1920x966","PictureMapping","PictureMapping","PictureMapping",5,"1",1,"Text","advancementZone","continue_button",25180.34,NA,NA,"",NA,"SuezPictureMapping",NA
"43",1605105907910,1,"11/11/2020 15:45:07","BLIND",1071064,NA,"complete",NA,"5fabf11c85a54d0b95e9da33","computer","Desktop or Laptop","Windows 10","Firefox 82.0","1920x1080","1920x966","PictureMapping","PictureMapping","PictureMapping",5,"1",2,"JoL1","Two","response_button_text",25180.34,NA,NA,"1",1,"SuezPictureMapping",NA
"44",1605105909179,1,"11/11/2020 15:45:09","BLIND",1071064,NA,"complete",NA,"5fabf11c85a54d0b95e9da33","computer","Desktop or Laptop","Windows 10","Firefox 82.0","1920x1080","1920x966","PictureMapping","PictureMapping","PictureMapping",5,"1",3,"IntroPictureMapping","advancementZone","continue_keyboard",25180.34,NA,NA,"",NA,"SuezPictureMapping",NA
"45",1605105940814,1,"11/11/2020 15:45:40","BLIND",1071064,NA,"complete",NA,"5fabf11c85a54d0b95e9da33","computer","Desktop or Laptop","Windows 10","Firefox 82.0","1920x1080","1920x966","PictureMapping","PictureMapping","PictureMapping",5,"1",4,"PictureMapping","advancementZone","response_text_entry",25180.34,NA,NA,"4",NA,"SuezPictureMapping",NA
"46",1605105940815,1,"11/11/2020 15:45:40","BLIND",1071064,NA,"complete",NA,"5fabf11c85a54d0b95e9da33","computer","Desktop or Laptop","Windows 10","Firefox 82.0","1920x1080","1920x966","PictureMapping","PictureMapping","PictureMapping",5,"1",4,"PictureMapping","Zone1","continue_button",25180.34,NA,NA,"",NA,"SuezPictureMapping",NA
"47",1605105942918,1,"11/11/2020 15:45:42","BLIND",1071064,NA,"complete",NA,"5fabf11c85a54d0b95e9da33","computer","Desktop or Laptop","Windows 10","Firefox 82.0","1920x1080","1920x966","PictureMapping","PictureMapping","PictureMapping",5,"1",5,"JoL2","One","response_button_text",25180.34,NA,NA,"1",1,"SuezPictureMapping",NA
"48",1605105943950,1,"11/11/2020 15:45:43","BLIND",1071064,NA,"complete",NA,"5fabf11c85a54d0b95e9da33","computer","Desktop or Laptop","Windows 10","Firefox 82.0","1920x1080","1920x966","PictureMapping","PictureMapping","PictureMapping",5,"1",6,"InstructieToets","advancementZone","continue_button",25180.34,NA,NA,"",NA,"SuezPictureMapping",NA
"49",1605106001894,1,"11/11/2020 15:46:41","BLIND",1071064,NA,"complete",NA,"5fabf11c85a54d0b95e9da33","computer","Desktop or Laptop","Windows 10","Firefox 82.0","1920x1080","1920x966","PictureMapping","PictureMapping","PictureMapping",5,"1",7,"Test","buttonA","response_text_area",25180.34,NA,NA,"ohJ5IJTbz",NA,"SuezPictureMapping",NA
"5",1605105245719,1,"11/11/2020 15:34:05","BLIND",1071064,NA,"complete",NA,"5fabf11c85a54d0b95e9da33","computer","Desktop or Laptop","Windows 10","Firefox 82.0","1920x1080","1920x966","PictureMapping","PictureMapping","PictureMapping",9,"1",4,"PictureMapping","advancementZone","response_text_entry",25180.34,NA,NA,"4",NA,"MuziekPictureMapping",NA
"50",1605106001895,1,"11/11/2020 15:46:41","BLIND",1071064,NA,"complete",NA,"5fabf11c85a54d0b95e9da33","computer","Desktop or Laptop","Windows 10","Firefox 82.0","1920x1080","1920x966","PictureMapping","PictureMapping","PictureMapping",5,"1",7,"Test","buttonB","continue_button",25180.34,NA,NA,"",NA,"SuezPictureMapping",NA
"51",1605106002942,1,"11/11/2020 15:46:42","BLIND",1071064,NA,"complete",NA,"5fabf11c85a54d0b95e9da33","computer","Desktop or Laptop","Windows 10","Firefox 82.0","1920x1080","1920x966","PictureMapping","PictureMapping","PictureMapping",10,"5",1,"ReadyForNext","advancementZone","continue_button",25180.34,NA,NA,"",NA,"ReadyForNextTextScreen",NA
"52",1605106073902,1,"11/11/2020 15:47:53","BLIND",1071064,NA,"complete",NA,"5fabf11c85a54d0b95e9da33","computer","Desktop or Laptop","Windows 10","Firefox 82.0","1920x1080","1920x966","PictureMapping","PictureMapping","PictureMapping",7,"1",1,"Text","advancementZone","continue_button",25180.34,NA,NA,"",NA,"BotoxPictureMapping",NA
"53",1605106074886,1,"11/11/2020 15:47:54","BLIND",1071064,NA,"complete",NA,"5fabf11c85a54d0b95e9da33","computer","Desktop or Laptop","Windows 10","Firefox 82.0","1920x1080","1920x966","PictureMapping","PictureMapping","PictureMapping",7,"1",2,"JoL1","Three","response_button_text",25180.34,NA,NA,"1",1,"BotoxPictureMapping",NA
"54",1605106076083,1,"11/11/2020 15:47:56","BLIND",1071064,NA,"complete",NA,"5fabf11c85a54d0b95e9da33","computer","Desktop or Laptop","Windows 10","Firefox 82.0","1920x1080","1920x966","PictureMapping","PictureMapping","PictureMapping",7,"1",3,"IntroPictureMapping","advancementZone","continue_keyboard",25180.34,NA,NA,"",NA,"BotoxPictureMapping",NA
"55",1605106111566,1,"11/11/2020 15:48:31","BLIND",1071064,NA,"complete",NA,"5fabf11c85a54d0b95e9da33","computer","Desktop or Laptop","Windows 10","Firefox 82.0","1920x1080","1920x966","PictureMapping","PictureMapping","PictureMapping",7,"1",4,"PictureMapping","advancementZone","response_text_entry",25180.34,NA,NA,"4",NA,"BotoxPictureMapping",NA
"56",1605106111568,1,"11/11/2020 15:48:31","BLIND",1071064,NA,"complete",NA,"5fabf11c85a54d0b95e9da33","computer","Desktop or Laptop","Windows 10","Firefox 82.0","1920x1080","1920x966","PictureMapping","PictureMapping","PictureMapping",7,"1",4,"PictureMapping","Zone1","continue_button",25180.34,NA,NA,"",NA,"BotoxPictureMapping",NA
"57",1605106113526,1,"11/11/2020 15:48:33","BLIND",1071064,NA,"complete",NA,"5fabf11c85a54d0b95e9da33","computer","Desktop or Laptop","Windows 10","Firefox 82.0","1920x1080","1920x966","PictureMapping","PictureMapping","PictureMapping",7,"1",5,"JoL2","Two","response_button_text",25180.34,NA,NA,"1",1,"BotoxPictureMapping",NA
"58",1605106114445,1,"11/11/2020 15:48:34","BLIND",1071064,NA,"complete",NA,"5fabf11c85a54d0b95e9da33","computer","Desktop or Laptop","Windows 10","Firefox 82.0","1920x1080","1920x966","PictureMapping","PictureMapping","PictureMapping",7,"1",6,"InstructieToets","advancementZone","continue_button",25180.34,NA,NA,"",NA,"BotoxPictureMapping",NA
"59",1605106164063,1,"11/11/2020 15:49:24","BLIND",1071064,NA,"complete",NA,"5fabf11c85a54d0b95e9da33","computer","Desktop or Laptop","Windows 10","Firefox 82.0","1920x1080","1920x966","PictureMapping","PictureMapping","PictureMapping",7,"1",7,"Test","buttonA","response_text_area",25180.34,NA,NA,"LSplPQPa",NA,"BotoxPictureMapping",NA
"6",1605105245720,1,"11/11/2020 15:34:05","BLIND",1071064,NA,"complete",NA,"5fabf11c85a54d0b95e9da33","computer","Desktop or Laptop","Windows 10","Firefox 82.0","1920x1080","1920x966","PictureMapping","PictureMapping","PictureMapping",9,"1",4,"PictureMapping","Zone1","continue_button",25180.34,NA,NA,"",NA,"MuziekPictureMapping",NA
"60",1605106164063,1,"11/11/2020 15:49:24","BLIND",1071064,NA,"complete",NA,"5fabf11c85a54d0b95e9da33","computer","Desktop or Laptop","Windows 10","Firefox 82.0","1920x1080","1920x966","PictureMapping","PictureMapping","PictureMapping",7,"1",7,"Test","buttonB","continue_button",25180.34,NA,NA,"",NA,"BotoxPictureMapping",NA
"61",1605106164065,1,"11/11/2020 15:49:24","BLIND",1071064,NA,"complete",NA,"5fabf11c85a54d0b95e9da33","computer","Desktop or Laptop","Windows 10","Firefox 82.0","1920x1080","1920x966","PictureMapping","PictureMapping","",NA,"END TASK",NA,"","","",1011147,NA,NA,"",NA,"",NA
"7",1605105247429,1,"11/11/2020 15:34:07","BLIND",1071064,NA,"complete",NA,"5fabf11c85a54d0b95e9da33","computer","Desktop or Laptop","Windows 10","Firefox 82.0","1920x1080","1920x966","PictureMapping","PictureMapping","PictureMapping",9,"1",5,"JoL2","Two","response_button_text",25180.34,NA,NA,"1",1,"MuziekPictureMapping",NA
"8",1605105248646,1,"11/11/2020 15:34:08","BLIND",1071064,NA,"complete",NA,"5fabf11c85a54d0b95e9da33","computer","Desktop or Laptop","Windows 10","Firefox 82.0","1920x1080","1920x966","PictureMapping","PictureMapping","PictureMapping",9,"1",6,"InstructieToets","advancementZone","continue_button",25180.34,NA,NA,"",NA,"MuziekPictureMapping",NA
"9",1605105304717,1,"11/11/2020 15:35:04","BLIND",1071064,NA,"complete",NA,"5fabf11c85a54d0b95e9da33","computer","Desktop or Laptop","Windows 10","Firefox 82.0","1920x1080","1920x966","PictureMapping","PictureMapping","PictureMapping",9,"1",7,"Test","buttonA","response_text_area",25180.34,NA,NA,"oFxJB",NA,"MuziekPictureMapping",NA
"1",1604070984660,1,"30/10/2020 16:16:24","BLIND",1624316,NA,"complete",NA,"5f9c2c1feef84507fa1c53d7","computer","Desktop or Laptop","Windows 10","Chrome 86.0.4240.111","1536x864","1536x754","PictureMapping","PictureMapping","",NA,"BEGIN TASK",NA,"","","",NA,NA,NA,"",NA,"",NA
"10",1604071164759,1,"30/10/2020 16:19:24","BLIND",1624316,NA,"complete",NA,"5f9c2c1feef84507fa1c53d7","computer","Desktop or Laptop","Windows 10","Chrome 86.0.4240.111","1536x864","1536x754","PictureMapping","PictureMapping","PictureMapping",3,"1",7,"Test","buttonB","continue_button",25180.34,NA,NA,"",NA,"BetonPictureMapping",NA
"11",1604071168908,1,"30/10/2020 16:19:28","BLIND",1624316,NA,"complete",NA,"5f9c2c1feef84507fa1c53d7","computer","Desktop or Laptop","Windows 10","Chrome 86.0.4240.111","1536x864","1536x754","PictureMapping","PictureMapping","PictureMapping",2,"1",1,"ReadyForNext","advancementZone","continue_button",25180.34,NA,NA,"",NA,"ReadyForNextTextScreen",NA
"12",1604071203755,1,"30/10/2020 16:20:03","BLIND",1624316,NA,"complete",NA,"5f9c2c1feef84507fa1c53d7","computer","Desktop or Laptop","Windows 10","Chrome 86.0.4240.111","1536x864","1536x754","PictureMapping","PictureMapping","PictureMapping",1,"1",1,"Text","advancementZone","continue_button",25180.34,NA,NA,"",NA,"MetroPictureMapping",NA
"13",1604071205595,1,"30/10/2020 16:20:05","BLIND",1624316,NA,"complete",NA,"5f9c2c1feef84507fa1c53d7","computer","Desktop or Laptop","Windows 10","Chrome 86.0.4240.111","1536x864","1536x754","PictureMapping","PictureMapping","PictureMapping",1,"1",2,"JoL1","Two","response_button_text",25180.34,NA,NA,"1",1,"MetroPictureMapping",NA
"14",1604071207023,1,"30/10/2020 16:20:07","BLIND",1624316,NA,"complete",NA,"5f9c2c1feef84507fa1c53d7","computer","Desktop or Laptop","Windows 10","Chrome 86.0.4240.111","1536x864","1536x754","PictureMapping","PictureMapping","PictureMapping",1,"1",3,"IntroPictureMapping","advancementZone","continue_keyboard",25180.34,NA,NA,"",NA,"MetroPictureMapping",NA
"15",1604071271415,1,"30/10/2020 16:21:11","BLIND",1624316,NA,"complete",NA,"5f9c2c1feef84507fa1c53d7","computer","Desktop or Laptop","Windows 10","Chrome 86.0.4240.111","1536x864","1536x754","PictureMapping","PictureMapping","PictureMapping",1,"1",4,"PictureMapping","advancementZone","response_text_entry",25180.34,NA,NA,"3",NA,"MetroPictureMapping",NA
"16",1604071271417,1,"30/10/2020 16:21:11","BLIND",1624316,NA,"complete",NA,"5f9c2c1feef84507fa1c53d7","computer","Desktop or Laptop","Windows 10","Chrome 86.0.4240.111","1536x864","1536x754","PictureMapping","PictureMapping","PictureMapping",1,"1",4,"PictureMapping","Zone1","continue_button",25180.34,NA,NA,"",NA,"MetroPictureMapping",NA
"17",1604071275914,1,"30/10/2020 16:21:15","BLIND",1624316,NA,"complete",NA,"5f9c2c1feef84507fa1c53d7","computer","Desktop or Laptop","Windows 10","Chrome 86.0.4240.111","1536x864","1536x754","PictureMapping","PictureMapping","PictureMapping",1,"1",5,"JoL2","Two","response_button_text",25180.34,NA,NA,"1",1,"MetroPictureMapping",NA
"18",1604071277676,1,"30/10/2020 16:21:17","BLIND",1624316,NA,"complete",NA,"5f9c2c1feef84507fa1c53d7","computer","Desktop or Laptop","Windows 10","Chrome 86.0.4240.111","1536x864","1536x754","PictureMapping","PictureMapping","PictureMapping",1,"1",6,"InstructieToets","advancementZone","continue_button",25180.34,NA,NA,"",NA,"MetroPictureMapping",NA
"19",1604071385659,1,"30/10/2020 16:23:05","BLIND",1624316,NA,"complete",NA,"5f9c2c1feef84507fa1c53d7","computer","Desktop or Laptop","Windows 10","Chrome 86.0.4240.111","1536x864","1536x754","PictureMapping","PictureMapping","PictureMapping",1,"1",7,"Test","buttonA","response_text_area",25180.34,NA,NA,"rnxzpjp",NA,"MetroPictureMapping",NA
"2",1604071044052,1,"30/10/2020 16:17:24","BLIND",1624316,NA,"complete",NA,"5f9c2c1feef84507fa1c53d7","computer","Desktop or Laptop","Windows 10","Chrome 86.0.4240.111","1536x864","1536x754","PictureMapping","PictureMapping","PictureMapping",3,"1",1,"Text","advancementZone","continue_button",25180.34,NA,NA,"",NA,"BetonPictureMapping",NA
"20",1604071385661,1,"30/10/2020 16:23:05","BLIND",1624316,NA,"complete",NA,"5f9c2c1feef84507fa1c53d7","computer","Desktop or Laptop","Windows 10","Chrome 86.0.4240.111","1536x864","1536x754","PictureMapping","PictureMapping","PictureMapping",1,"1",7,"Test","buttonB","continue_button",25180.34,NA,NA,"",NA,"MetroPictureMapping",NA
"21",1604071388280,1,"30/10/2020 16:23:08","BLIND",1624316,NA,"complete",NA,"5f9c2c1feef84507fa1c53d7","computer","Desktop or Laptop","Windows 10","Chrome 86.0.4240.111","1536x864","1536x754","PictureMapping","PictureMapping","PictureMapping",4,"2",1,"ReadyForNext","advancementZone","continue_button",25180.34,NA,NA,"",NA,"ReadyForNextTextScreen",NA
"22",1604071448678,1,"30/10/2020 16:24:08","BLIND",1624316,NA,"complete",NA,"5f9c2c1feef84507fa1c53d7","computer","Desktop or Laptop","Windows 10","Chrome 86.0.4240.111","1536x864","1536x754","PictureMapping","PictureMapping","PictureMapping",5,"1",1,"Text","advancementZone","continue_button",25180.34,NA,NA,"",NA,"SuezPictureMapping",NA
"23",1604071451488,1,"30/10/2020 16:24:11","BLIND",1624316,NA,"complete",NA,"5f9c2c1feef84507fa1c53d7","computer","Desktop or Laptop","Windows 10","Chrome 86.0.4240.111","1536x864","1536x754","PictureMapping","PictureMapping","PictureMapping",5,"1",2,"JoL1","Two","response_button_text",25180.34,NA,NA,"1",1,"SuezPictureMapping",NA
"24",1604071452893,1,"30/10/2020 16:24:12","BLIND",1624316,NA,"complete",NA,"5f9c2c1feef84507fa1c53d7","computer","Desktop or Laptop","Windows 10","Chrome 86.0.4240.111","1536x864","1536x754","PictureMapping","PictureMapping","PictureMapping",5,"1",3,"IntroPictureMapping","advancementZone","continue_keyboard",25180.34,NA,NA,"",NA,"SuezPictureMapping",NA
"25",1604071498711,1,"30/10/2020 16:24:58","BLIND",1624316,NA,"complete",NA,"5f9c2c1feef84507fa1c53d7","computer","Desktop or Laptop","Windows 10","Chrome 86.0.4240.111","1536x864","1536x754","PictureMapping","PictureMapping","PictureMapping",5,"1",4,"PictureMapping","advancementZone","response_text_entry",25180.34,NA,NA,"4",NA,"SuezPictureMapping",NA
"26",1604071498712,1,"30/10/2020 16:24:58","BLIND",1624316,NA,"complete",NA,"5f9c2c1feef84507fa1c53d7","computer","Desktop or Laptop","Windows 10","Chrome 86.0.4240.111","1536x864","1536x754","PictureMapping","PictureMapping","PictureMapping",5,"1",4,"PictureMapping","Zone1","continue_button",25180.34,NA,NA,"",NA,"SuezPictureMapping",NA
"27",1604071500700,1,"30/10/2020 16:25:00","BLIND",1624316,NA,"complete",NA,"5f9c2c1feef84507fa1c53d7","computer","Desktop or Laptop","Windows 10","Chrome 86.0.4240.111","1536x864","1536x754","PictureMapping","PictureMapping","PictureMapping",5,"1",5,"JoL2","Two","response_button_text",25180.34,NA,NA,"1",1,"SuezPictureMapping",NA
"28",1604071501944,1,"30/10/2020 16:25:01","BLIND",1624316,NA,"complete",NA,"5f9c2c1feef84507fa1c53d7","computer","Desktop or Laptop","Windows 10","Chrome 86.0.4240.111","1536x864","1536x754","PictureMapping","PictureMapping","PictureMapping",5,"1",6,"InstructieToets","advancementZone","continue_button",25180.34,NA,NA,"",NA,"SuezPictureMapping",NA
"29",1604071673852,1,"30/10/2020 16:27:53","BLIND",1624316,NA,"complete",NA,"5f9c2c1feef84507fa1c53d7","computer","Desktop or Laptop","Windows 10","Chrome 86.0.4240.111","1536x864","1536x754","PictureMapping","PictureMapping","PictureMapping",5,"1",7,"Test","buttonA","response_text_area",25180.34,NA,NA,"CvezM5y4",NA,"SuezPictureMapping",NA
"3",1604071047088,1,"30/10/2020 16:17:27","BLIND",1624316,NA,"complete",NA,"5f9c2c1feef84507fa1c53d7","computer","Desktop or Laptop","Windows 10","Chrome 86.0.4240.111","1536x864","1536x754","PictureMapping","PictureMapping","PictureMapping",3,"1",2,"JoL1","Three","response_button_text",25180.34,NA,NA,"1",1,"BetonPictureMapping",NA
"30",1604071673856,1,"30/10/2020 16:27:53","BLIND",1624316,NA,"complete",NA,"5f9c2c1feef84507fa1c53d7","computer","Desktop or Laptop","Windows 10","Chrome 86.0.4240.111","1536x864","1536x754","PictureMapping","PictureMapping","PictureMapping",5,"1",7,"Test","buttonB","continue_button",25180.34,NA,NA,"",NA,"SuezPictureMapping",NA
"31",1604071675151,1,"30/10/2020 16:27:55","BLIND",1624316,NA,"complete",NA,"5f9c2c1feef84507fa1c53d7","computer","Desktop or Laptop","Windows 10","Chrome 86.0.4240.111","1536x864","1536x754","PictureMapping","PictureMapping","PictureMapping",6,"3",1,"ReadyForNext","advancementZone","continue_button",25180.34,NA,NA,"",NA,"ReadyForNextTextScreen",NA
"32",1604071795879,1,"30/10/2020 16:29:55","BLIND",1624316,NA,"complete",NA,"5f9c2c1feef84507fa1c53d7","computer","Desktop or Laptop","Windows 10","Chrome 86.0.4240.111","1536x864","1536x754","PictureMapping","PictureMapping","PictureMapping",7,"1",1,"Text","advancementZone","continue_button",25180.34,NA,NA,"",NA,"BotoxPictureMapping",NA
"33",1604071797920,1,"30/10/2020 16:29:57","BLIND",1624316,NA,"complete",NA,"5f9c2c1feef84507fa1c53d7","computer","Desktop or Laptop","Windows 10","Chrome 86.0.4240.111","1536x864","1536x754","PictureMapping","PictureMapping","PictureMapping",7,"1",2,"JoL1","One","response_button_text",25180.34,NA,NA,"1",1,"BotoxPictureMapping",NA
"34",1604071799445,1,"30/10/2020 16:29:59","BLIND",1624316,NA,"complete",NA,"5f9c2c1feef84507fa1c53d7","computer","Desktop or Laptop","Windows 10","Chrome 86.0.4240.111","1536x864","1536x754","PictureMapping","PictureMapping","PictureMapping",7,"1",3,"IntroPictureMapping","advancementZone","continue_keyboard",25180.34,NA,NA,"",NA,"BotoxPictureMapping",NA
"35",1604071832619,1,"30/10/2020 16:30:32","BLIND",1624316,NA,"complete",NA,"5f9c2c1feef84507fa1c53d7","computer","Desktop or Laptop","Windows 10","Chrome 86.0.4240.111","1536x864","1536x754","PictureMapping","PictureMapping","PictureMapping",7,"1",4,"PictureMapping","advancementZone","response_text_entry",25180.34,NA,NA,"4",NA,"BotoxPictureMapping",NA
"36",1604071832620,1,"30/10/2020 16:30:32","BLIND",1624316,NA,"complete",NA,"5f9c2c1feef84507fa1c53d7","computer","Desktop or Laptop","Windows 10","Chrome 86.0.4240.111","1536x864","1536x754","PictureMapping","PictureMapping","PictureMapping",7,"1",4,"PictureMapping","Zone1","continue_button",25180.34,NA,NA,"",NA,"BotoxPictureMapping",NA
"37",1604071834763,1,"30/10/2020 16:30:34","BLIND",1624316,NA,"complete",NA,"5f9c2c1feef84507fa1c53d7","computer","Desktop or Laptop","Windows 10","Chrome 86.0.4240.111","1536x864","1536x754","PictureMapping","PictureMapping","PictureMapping",7,"1",5,"JoL2","One","response_button_text",25180.34,NA,NA,"1",1,"BotoxPictureMapping",NA
"38",1604071836775,1,"30/10/2020 16:30:36","BLIND",1624316,NA,"complete",NA,"5f9c2c1feef84507fa1c53d7","computer","Desktop or Laptop","Windows 10","Chrome 86.0.4240.111","1536x864","1536x754","PictureMapping","PictureMapping","PictureMapping",7,"1",6,"InstructieToets","advancementZone","continue_button",25180.34,NA,NA,"",NA,"BotoxPictureMapping",NA
"39",1604071965294,1,"30/10/2020 16:32:45","BLIND",1624316,NA,"complete",NA,"5f9c2c1feef84507fa1c53d7","computer","Desktop or Laptop","Windows 10","Chrome 86.0.4240.111","1536x864","1536x754","PictureMapping","PictureMapping","PictureMapping",7,"1",7,"Test","buttonA","response_text_area",25180.34,NA,NA,"7oxgdPmStL",NA,"BotoxPictureMapping",NA
"4",1604071049095,1,"30/10/2020 16:17:29","BLIND",1624316,NA,"complete",NA,"5f9c2c1feef84507fa1c53d7","computer","Desktop or Laptop","Windows 10","Chrome 86.0.4240.111","1536x864","1536x754","PictureMapping","PictureMapping","PictureMapping",3,"1",3,"IntroPictureMapping","advancementZone","continue_keyboard",25180.34,NA,NA,"",NA,"BetonPictureMapping",NA
"40",1604071965298,1,"30/10/2020 16:32:45","BLIND",1624316,NA,"complete",NA,"5f9c2c1feef84507fa1c53d7","computer","Desktop or Laptop","Windows 10","Chrome 86.0.4240.111","1536x864","1536x754","PictureMapping","PictureMapping","PictureMapping",7,"1",7,"Test","buttonB","continue_button",25180.34,NA,NA,"",NA,"BotoxPictureMapping",NA
"41",1604071967039,1,"30/10/2020 16:32:47","BLIND",1624316,NA,"complete",NA,"5f9c2c1feef84507fa1c53d7","computer","Desktop or Laptop","Windows 10","Chrome 86.0.4240.111","1536x864","1536x754","PictureMapping","PictureMapping","PictureMapping",8,"4",1,"ReadyForNext","advancementZone","continue_button",25180.34,NA,NA,"",NA,"ReadyForNextTextScreen",NA
"42",1604072075429,1,"30/10/2020 16:34:35","BLIND",1624316,NA,"complete",NA,"5f9c2c1feef84507fa1c53d7","computer","Desktop or Laptop","Windows 10","Chrome 86.0.4240.111","1536x864","1536x754","PictureMapping","PictureMapping","PictureMapping",9,"1",1,"Text","advancementZone","continue_button",25180.34,NA,NA,"",NA,"MuziekPictureMapping",NA
"43",1604072079639,1,"30/10/2020 16:34:39","BLIND",1624316,NA,"complete",NA,"5f9c2c1feef84507fa1c53d7","computer","Desktop or Laptop","Windows 10","Chrome 86.0.4240.111","1536x864","1536x754","PictureMapping","PictureMapping","PictureMapping",9,"1",2,"JoL1","Two","response_button_text",25180.34,NA,NA,"1",1,"MuziekPictureMapping",NA
"44",1604072080804,1,"30/10/2020 16:34:40","BLIND",1624316,NA,"complete",NA,"5f9c2c1feef84507fa1c53d7","computer","Desktop or Laptop","Windows 10","Chrome 86.0.4240.111","1536x864","1536x754","PictureMapping","PictureMapping","PictureMapping",9,"1",3,"IntroPictureMapping","advancementZone","continue_keyboard",25180.34,NA,NA,"",NA,"MuziekPictureMapping",NA
"45",1604072162673,1,"30/10/2020 16:36:02","BLIND",1624316,NA,"complete",NA,"5f9c2c1feef84507fa1c53d7","computer","Desktop or Laptop","Windows 10","Chrome 86.0.4240.111","1536x864","1536x754","PictureMapping","PictureMapping","PictureMapping",9,"1",4,"PictureMapping","advancementZone","response_text_entry",25180.34,NA,NA,"1",NA,"MuziekPictureMapping",NA
"46",1604072162674,1,"30/10/2020 16:36:02","BLIND",1624316,NA,"complete",NA,"5f9c2c1feef84507fa1c53d7","computer","Desktop or Laptop","Windows 10","Chrome 86.0.4240.111","1536x864","1536x754","PictureMapping","PictureMapping","PictureMapping",9,"1",4,"PictureMapping","Zone1","continue_button",25180.34,NA,NA,"",NA,"MuziekPictureMapping",NA
"47",1604072164793,1,"30/10/2020 16:36:04","BLIND",1624316,NA,"complete",NA,"5f9c2c1feef84507fa1c53d7","computer","Desktop or Laptop","Windows 10","Chrome 86.0.4240.111","1536x864","1536x754","PictureMapping","PictureMapping","PictureMapping",9,"1",5,"JoL2","Two","response_button_text",25180.34,NA,NA,"1",1,"MuziekPictureMapping",NA
"48",1604072166122,1,"30/10/2020 16:36:06","BLIND",1624316,NA,"complete",NA,"5f9c2c1feef84507fa1c53d7","computer","Desktop or Laptop","Windows 10","Chrome 86.0.4240.111","1536x864","1536x754","PictureMapping","PictureMapping","PictureMapping",9,"1",6,"InstructieToets","advancementZone","continue_button",25180.34,NA,NA,"",NA,"MuziekPictureMapping",NA
"49",1604072272689,1,"30/10/2020 16:37:52","BLIND",1624316,NA,"complete",NA,"5f9c2c1feef84507fa1c53d7","computer","Desktop or Laptop","Windows 10","Chrome 86.0.4240.111","1536x864","1536x754","PictureMapping","PictureMapping","PictureMapping",9,"1",7,"Test","buttonA","response_text_area",25180.34,NA,NA,"xh",NA,"MuziekPictureMapping",NA
"5",1604071077111,1,"30/10/2020 16:17:57","BLIND",1624316,NA,"complete",NA,"5f9c2c1feef84507fa1c53d7","computer","Desktop or Laptop","Windows 10","Chrome 86.0.4240.111","1536x864","1536x754","PictureMapping","PictureMapping","PictureMapping",3,"1",4,"PictureMapping","advancementZone","response_text_entry",25180.34,NA,NA,"4",NA,"BetonPictureMapping",NA
"50",1604072272690,1,"30/10/2020 16:37:52","BLIND",1624316,NA,"complete",NA,"5f9c2c1feef84507fa1c53d7","computer","Desktop or Laptop","Windows 10","Chrome 86.0.4240.111","1536x864","1536x754","PictureMapping","PictureMapping","PictureMapping",9,"1",7,"Test","buttonB","continue_button",25180.34,NA,NA,"",NA,"MuziekPictureMapping",NA
"51",1604072274096,1,"30/10/2020 16:37:54","BLIND",1624316,NA,"complete",NA,"5f9c2c1feef84507fa1c53d7","computer","Desktop or Laptop","Windows 10","Chrome 86.0.4240.111","1536x864","1536x754","PictureMapping","PictureMapping","PictureMapping",10,"5",1,"ReadyForNext","advancementZone","continue_button",25180.34,NA,NA,"",NA,"ReadyForNextTextScreen",NA
"52",1604072439153,1,"30/10/2020 16:40:39","BLIND",1624316,NA,"complete",NA,"5f9c2c1feef84507fa1c53d7","computer","Desktop or Laptop","Windows 10","Chrome 86.0.4240.111","1536x864","1536x754","PictureMapping","PictureMapping","PictureMapping",11,"1",1,"Text","advancementZone","continue_button",25180.34,NA,NA,"",NA,"GeldPictureMapping",NA
"53",1604072440566,1,"30/10/2020 16:40:40","BLIND",1624316,NA,"complete",NA,"5f9c2c1feef84507fa1c53d7","computer","Desktop or Laptop","Windows 10","Chrome 86.0.4240.111","1536x864","1536x754","PictureMapping","PictureMapping","PictureMapping",11,"1",2,"JoL1","One","response_button_text",25180.34,NA,NA,"1",1,"GeldPictureMapping",NA
"54",1604072441882,1,"30/10/2020 16:40:41","BLIND",1624316,NA,"complete",NA,"5f9c2c1feef84507fa1c53d7","computer","Desktop or Laptop","Windows 10","Chrome 86.0.4240.111","1536x864","1536x754","PictureMapping","PictureMapping","PictureMapping",11,"1",3,"IntroPictureMapping","advancementZone","continue_keyboard",25180.34,NA,NA,"",NA,"GeldPictureMapping",NA
"55",1604072499350,1,"30/10/2020 16:41:39","BLIND",1624316,NA,"complete",NA,"5f9c2c1feef84507fa1c53d7","computer","Desktop or Laptop","Windows 10","Chrome 86.0.4240.111","1536x864","1536x754","PictureMapping","PictureMapping","PictureMapping",11,"1",4,"PictureMapping","advancementZone","response_text_entry",25180.34,NA,NA,"3",NA,"GeldPictureMapping",NA
"56",1604072499352,1,"30/10/2020 16:41:39","BLIND",1624316,NA,"complete",NA,"5f9c2c1feef84507fa1c53d7","computer","Desktop or Laptop","Windows 10","Chrome 86.0.4240.111","1536x864","1536x754","PictureMapping","PictureMapping","PictureMapping",11,"1",4,"PictureMapping","Zone1","continue_button",25180.34,NA,NA,"",NA,"GeldPictureMapping",NA
"57",1604072500983,1,"30/10/2020 16:41:40","BLIND",1624316,NA,"complete",NA,"5f9c2c1feef84507fa1c53d7","computer","Desktop or Laptop","Windows 10","Chrome 86.0.4240.111","1536x864","1536x754","PictureMapping","PictureMapping","PictureMapping",11,"1",5,"JoL2","One","response_button_text",25180.34,NA,NA,"1",1,"GeldPictureMapping",NA
"58",1604072502398,1,"30/10/2020 16:41:42","BLIND",1624316,NA,"complete",NA,"5f9c2c1feef84507fa1c53d7","computer","Desktop or Laptop","Windows 10","Chrome 86.0.4240.111","1536x864","1536x754","PictureMapping","PictureMapping","PictureMapping",11,"1",6,"ToetsInstructie","advancementZone","continue_button",25180.34,NA,NA,"",NA,"GeldPictureMapping",NA
"59",1604072625281,1,"30/10/2020 16:43:45","BLIND",1624316,NA,"complete",NA,"5f9c2c1feef84507fa1c53d7","computer","Desktop or Laptop","Windows 10","Chrome 86.0.4240.111","1536x864","1536x754","PictureMapping","PictureMapping","PictureMapping",11,"1",7,"Test","buttonA","response_text_area",25180.34,NA,NA,"4AEPNgBgOj",NA,"GeldPictureMapping",NA
"6",1604071077113,1,"30/10/2020 16:17:57","BLIND",1624316,NA,"complete",NA,"5f9c2c1feef84507fa1c53d7","computer","Desktop or Laptop","Windows 10","Chrome 86.0.4240.111","1536x864","1536x754","PictureMapping","PictureMapping","PictureMapping",3,"1",4,"PictureMapping","Zone1","continue_button",25180.34,NA,NA,"",NA,"BetonPictureMapping",NA
"60",1604072625282,1,"30/10/2020 16:43:45","BLIND",1624316,NA,"complete",NA,"5f9c2c1feef84507fa1c53d7","computer","Desktop or Laptop","Windows 10","Chrome 86.0.4240.111","1536x864","1536x754","PictureMapping","PictureMapping","PictureMapping",11,"1",7,"Test","buttonB","continue_button",25180.34,NA,NA,"",NA,"GeldPictureMapping",NA
"61",1604072625284,1,"30/10/2020 16:43:45","BLIND",1624316,NA,"complete",NA,"5f9c2c1feef84507fa1c53d7","computer","Desktop or Laptop","Windows 10","Chrome 86.0.4240.111","1536x864","1536x754","PictureMapping","PictureMapping","",NA,"END TASK",NA,"","","",1640624,NA,NA,"",NA,"",NA
"7",1604071077971,1,"30/10/2020 16:17:57","BLIND",1624316,NA,"complete",NA,"5f9c2c1feef84507fa1c53d7","computer","Desktop or Laptop","Windows 10","Chrome 86.0.4240.111","1536x864","1536x754","PictureMapping","PictureMapping","PictureMapping",3,"1",5,"JoL2","Three","response_button_text",25180.34,NA,NA,"1",1,"BetonPictureMapping",NA
"8",1604071080563,1,"30/10/2020 16:18:00","BLIND",1624316,NA,"complete",NA,"5f9c2c1feef84507fa1c53d7","computer","Desktop or Laptop","Windows 10","Chrome 86.0.4240.111","1536x864","1536x754","PictureMapping","PictureMapping","PictureMapping",3,"1",6,"InstructieToets","advancementZone","continue_button",25180.34,NA,NA,"",NA,"BetonPictureMapping",NA
"9",1604071164758,1,"30/10/2020 16:19:24","BLIND",1624316,NA,"complete",NA,"5f9c2c1feef84507fa1c53d7","computer","Desktop or Laptop","Windows 10","Chrome 86.0.4240.111","1536x864","1536x754","PictureMapping","PictureMapping","PictureMapping",3,"1",7,"Test","buttonA","response_text_area",25180.34,NA,NA,"hm",NA,"BetonPictureMapping",NA
"1",1604569761063,1,"05/11/2020 10:49:21","BLIND",2409999,NA,"complete",NA,"5fa3c8382f35860107f38c45","computer","Desktop or Laptop","Windows 10","Chrome 86.0.4240.111","1536x864","1536x754","PictureMapping","PictureMapping","",NA,"BEGIN TASK",NA,"","","",NA,NA,NA,"",NA,"",NA
"10",1604569939704,1,"05/11/2020 10:52:19","BLIND",2409999,NA,"complete",NA,"5fa3c8382f35860107f38c45","computer","Desktop or Laptop","Windows 10","Chrome 86.0.4240.111","1536x864","1536x754","PictureMapping","PictureMapping","PictureMapping",3,"1",7,"Test","buttonB","continue_button",25180.34,NA,NA,"",NA,"BetonPictureMapping",NA
"11",1604569941180,1,"05/11/2020 10:52:21","BLIND",2409999,NA,"complete",NA,"5fa3c8382f35860107f38c45","computer","Desktop or Laptop","Windows 10","Chrome 86.0.4240.111","1536x864","1536x754","PictureMapping","PictureMapping","PictureMapping",2,"1",1,"ReadyForNext","advancementZone","continue_button",25180.34,NA,NA,"",NA,"ReadyForNextTextScreen",NA
"12",1604569980609,1,"05/11/2020 10:53:00","BLIND",2409999,NA,"complete",NA,"5fa3c8382f35860107f38c45","computer","Desktop or Laptop","Windows 10","Chrome 86.0.4240.111","1536x864","1536x754","PictureMapping","PictureMapping","PictureMapping",5,"1",1,"Text","advancementZone","continue_button",25180.34,NA,NA,"",NA,"SuezPictureMapping",NA
"13",1604569982345,1,"05/11/2020 10:53:02","BLIND",2409999,NA,"complete",NA,"5fa3c8382f35860107f38c45","computer","Desktop or Laptop","Windows 10","Chrome 86.0.4240.111","1536x864","1536x754","PictureMapping","PictureMapping","PictureMapping",5,"1",2,"JoL1","Three","response_button_text",25180.34,NA,NA,"1",1,"SuezPictureMapping",NA
"14",1604569983805,1,"05/11/2020 10:53:03","BLIND",2409999,NA,"complete",NA,"5fa3c8382f35860107f38c45","computer","Desktop or Laptop","Windows 10","Chrome 86.0.4240.111","1536x864","1536x754","PictureMapping","PictureMapping","PictureMapping",5,"1",3,"IntroPictureMapping","advancementZone","continue_keyboard",25180.34,NA,NA,"",NA,"SuezPictureMapping",NA
"15",1604570020199,1,"05/11/2020 10:53:40","BLIND",2409999,NA,"complete",NA,"5fa3c8382f35860107f38c45","computer","Desktop or Laptop","Windows 10","Chrome 86.0.4240.111","1536x864","1536x754","PictureMapping","PictureMapping","PictureMapping",5,"1",4,"PictureMapping","advancementZone","response_text_entry",25180.34,NA,NA,"5",NA,"SuezPictureMapping",NA
"16",1604570020200,1,"05/11/2020 10:53:40","BLIND",2409999,NA,"complete",NA,"5fa3c8382f35860107f38c45","computer","Desktop or Laptop","Windows 10","Chrome 86.0.4240.111","1536x864","1536x754","PictureMapping","PictureMapping","PictureMapping",5,"1",4,"PictureMapping","Zone1","continue_button",25180.34,NA,NA,"",NA,"SuezPictureMapping",NA
"17",1604570023733,1,"05/11/2020 10:53:43","BLIND",2409999,NA,"complete",NA,"5fa3c8382f35860107f38c45","computer","Desktop or Laptop","Windows 10","Chrome 86.0.4240.111","1536x864","1536x754","PictureMapping","PictureMapping","PictureMapping",5,"1",5,"JoL2","Three","response_button_text",25180.34,NA,NA,"1",1,"SuezPictureMapping",NA
"18",1604570024781,1,"05/11/2020 10:53:44","BLIND",2409999,NA,"complete",NA,"5fa3c8382f35860107f38c45","computer","Desktop or Laptop","Windows 10","Chrome 86.0.4240.111","1536x864","1536x754","PictureMapping","PictureMapping","PictureMapping",5,"1",6,"InstructieToets","advancementZone","continue_button",25180.34,NA,NA,"",NA,"SuezPictureMapping",NA
"19",1604570113675,1,"05/11/2020 10:55:13","BLIND",2409999,NA,"complete",NA,"5fa3c8382f35860107f38c45","computer","Desktop or Laptop","Windows 10","Chrome 86.0.4240.111","1536x864","1536x754","PictureMapping","PictureMapping","PictureMapping",5,"1",7,"Test","buttonA","response_text_area",25180.34,NA,NA,"EDtKG",NA,"SuezPictureMapping",NA
"2",1604569819500,1,"05/11/2020 10:50:19","BLIND",2409999,NA,"complete",NA,"5fa3c8382f35860107f38c45","computer","Desktop or Laptop","Windows 10","Chrome 86.0.4240.111","1536x864","1536x754","PictureMapping","PictureMapping","PictureMapping",3,"1",1,"Text","advancementZone","continue_button",25180.34,NA,NA,"",NA,"BetonPictureMapping",NA
"20",1604570113676,1,"05/11/2020 10:55:13","BLIND",2409999,NA,"complete",NA,"5fa3c8382f35860107f38c45","computer","Desktop or Laptop","Windows 10","Chrome 86.0.4240.111","1536x864","1536x754","PictureMapping","PictureMapping","PictureMapping",5,"1",7,"Test","buttonB","continue_button",25180.34,NA,NA,"",NA,"SuezPictureMapping",NA
"21",1604570114857,1,"05/11/2020 10:55:14","BLIND",2409999,NA,"complete",NA,"5fa3c8382f35860107f38c45","computer","Desktop or Laptop","Windows 10","Chrome 86.0.4240.111","1536x864","1536x754","PictureMapping","PictureMapping","PictureMapping",4,"2",1,"ReadyForNext","advancementZone","continue_button",25180.34,NA,NA,"",NA,"ReadyForNextTextScreen",NA
"22",1604570163413,1,"05/11/2020 10:56:03","BLIND",2409999,NA,"complete",NA,"5fa3c8382f35860107f38c45","computer","Desktop or Laptop","Windows 10","Chrome 86.0.4240.111","1536x864","1536x754","PictureMapping","PictureMapping","PictureMapping",1,"1",1,"Text","advancementZone","continue_button",25180.34,NA,NA,"",NA,"MetroPictureMapping",NA
"23",1604570164853,1,"05/11/2020 10:56:04","BLIND",2409999,NA,"complete",NA,"5fa3c8382f35860107f38c45","computer","Desktop or Laptop","Windows 10","Chrome 86.0.4240.111","1536x864","1536x754","PictureMapping","PictureMapping","PictureMapping",1,"1",2,"JoL1","Two","response_button_text",25180.34,NA,NA,"1",1,"MetroPictureMapping",NA
"24",1604570166064,1,"05/11/2020 10:56:06","BLIND",2409999,NA,"complete",NA,"5fa3c8382f35860107f38c45","computer","Desktop or Laptop","Windows 10","Chrome 86.0.4240.111","1536x864","1536x754","PictureMapping","PictureMapping","PictureMapping",1,"1",3,"IntroPictureMapping","advancementZone","continue_keyboard",25180.34,NA,NA,"",NA,"MetroPictureMapping",NA
"25",1604570235430,1,"05/11/2020 10:57:15","BLIND",2409999,NA,"complete",NA,"5fa3c8382f35860107f38c45","computer","Desktop or Laptop","Windows 10","Chrome 86.0.4240.111","1536x864","1536x754","PictureMapping","PictureMapping","PictureMapping",1,"1",4,"PictureMapping","advancementZone","response_text_entry",25180.34,NA,NA,"4",NA,"MetroPictureMapping",NA
"26",1604570235432,1,"05/11/2020 10:57:15","BLIND",2409999,NA,"complete",NA,"5fa3c8382f35860107f38c45","computer","Desktop or Laptop","Windows 10","Chrome 86.0.4240.111","1536x864","1536x754","PictureMapping","PictureMapping","PictureMapping",1,"1",4,"PictureMapping","Zone1","continue_button",25180.34,NA,NA,"",NA,"MetroPictureMapping",NA
"27",1604570236617,1,"05/11/2020 10:57:16","BLIND",2409999,NA,"complete",NA,"5fa3c8382f35860107f38c45","computer","Desktop or Laptop","Windows 10","Chrome 86.0.4240.111","1536x864","1536x754","PictureMapping","PictureMapping","PictureMapping",1,"1",5,"JoL2","Two","response_button_text",25180.34,NA,NA,"1",1,"MetroPictureMapping",NA
"28",1604570237609,1,"05/11/2020 10:57:17","BLIND",2409999,NA,"complete",NA,"5fa3c8382f35860107f38c45","computer","Desktop or Laptop","Windows 10","Chrome 86.0.4240.111","1536x864","1536x754","PictureMapping","PictureMapping","PictureMapping",1,"1",6,"InstructieToets","advancementZone","continue_button",25180.34,NA,NA,"",NA,"MetroPictureMapping",NA
"29",1604570320510,1,"05/11/2020 10:58:40","BLIND",2409999,NA,"complete",NA,"5fa3c8382f35860107f38c45","computer","Desktop or Laptop","Windows 10","Chrome 86.0.4240.111","1536x864","1536x754","PictureMapping","PictureMapping","PictureMapping",1,"1",7,"Test","buttonA","response_text_area",25180.34,NA,NA,"xIVjV",NA,"MetroPictureMapping",NA
"3",1604569821011,1,"05/11/2020 10:50:21","BLIND",2409999,NA,"complete",NA,"5fa3c8382f35860107f38c45","computer","Desktop or Laptop","Windows 10","Chrome 86.0.4240.111","1536x864","1536x754","PictureMapping","PictureMapping","PictureMapping",3,"1",2,"JoL1","Two","response_button_text",25180.34,NA,NA,"1",1,"BetonPictureMapping",NA
"30",1604570320513,1,"05/11/2020 10:58:40","BLIND",2409999,NA,"complete",NA,"5fa3c8382f35860107f38c45","computer","Desktop or Laptop","Windows 10","Chrome 86.0.4240.111","1536x864","1536x754","PictureMapping","PictureMapping","PictureMapping",1,"1",7,"Test","buttonB","continue_button",25180.34,NA,NA,"",NA,"MetroPictureMapping",NA
"31",1604570321373,1,"05/11/2020 10:58:41","BLIND",2409999,NA,"complete",NA,"5fa3c8382f35860107f38c45","computer","Desktop or Laptop","Windows 10","Chrome 86.0.4240.111","1536x864","1536x754","PictureMapping","PictureMapping","PictureMapping",6,"3",1,"ReadyForNext","advancementZone","continue_button",25180.34,NA,NA,"",NA,"ReadyForNextTextScreen",NA
"32",1604570369296,1,"05/11/2020 10:59:29","BLIND",2409999,NA,"complete",NA,"5fa3c8382f35860107f38c45","computer","Desktop or Laptop","Windows 10","Chrome 86.0.4240.111","1536x864","1536x754","PictureMapping","PictureMapping","PictureMapping",7,"1",1,"Text","advancementZone","continue_button",25180.34,NA,NA,"",NA,"BotoxPictureMapping",NA
"33",1604570370489,1,"05/11/2020 10:59:30","BLIND",2409999,NA,"complete",NA,"5fa3c8382f35860107f38c45","computer","Desktop or Laptop","Windows 10","Chrome 86.0.4240.111","1536x864","1536x754","PictureMapping","PictureMapping","PictureMapping",7,"1",2,"JoL1","Two","response_button_text",25180.34,NA,NA,"1",1,"BotoxPictureMapping",NA
"34",1604570371667,1,"05/11/2020 10:59:31","BLIND",2409999,NA,"complete",NA,"5fa3c8382f35860107f38c45","computer","Desktop or Laptop","Windows 10","Chrome 86.0.4240.111","1536x864","1536x754","PictureMapping","PictureMapping","PictureMapping",7,"1",3,"IntroPictureMapping","advancementZone","continue_keyboard",25180.34,NA,NA,"",NA,"BotoxPictureMapping",NA
"35",1604570404735,1,"05/11/2020 11:00:04","BLIND",2409999,NA,"complete",NA,"5fa3c8382f35860107f38c45","computer","Desktop or Laptop","Windows 10","Chrome 86.0.4240.111","1536x864","1536x754","PictureMapping","PictureMapping","PictureMapping",7,"1",4,"PictureMapping","advancementZone","response_text_entry",25180.34,NA,NA,"4",NA,"BotoxPictureMapping",NA
"36",1604570404737,1,"05/11/2020 11:00:04","BLIND",2409999,NA,"complete",NA,"5fa3c8382f35860107f38c45","computer","Desktop or Laptop","Windows 10","Chrome 86.0.4240.111","1536x864","1536x754","PictureMapping","PictureMapping","PictureMapping",7,"1",4,"PictureMapping","Zone1","continue_button",25180.34,NA,NA,"",NA,"BotoxPictureMapping",NA
"37",1604570407233,1,"05/11/2020 11:00:07","BLIND",2409999,NA,"complete",NA,"5fa3c8382f35860107f38c45","computer","Desktop or Laptop","Windows 10","Chrome 86.0.4240.111","1536x864","1536x754","PictureMapping","PictureMapping","PictureMapping",7,"1",5,"JoL2","One","response_button_text",25180.34,NA,NA,"1",1,"BotoxPictureMapping",NA
"38",1604570408385,1,"05/11/2020 11:00:08","BLIND",2409999,NA,"complete",NA,"5fa3c8382f35860107f38c45","computer","Desktop or Laptop","Windows 10","Chrome 86.0.4240.111","1536x864","1536x754","PictureMapping","PictureMapping","PictureMapping",7,"1",6,"InstructieToets","advancementZone","continue_button",25180.34,NA,NA,"",NA,"BotoxPictureMapping",NA
"39",1604570471038,1,"05/11/2020 11:01:11","BLIND",2409999,NA,"complete",NA,"5fa3c8382f35860107f38c45","computer","Desktop or Laptop","Windows 10","Chrome 86.0.4240.111","1536x864","1536x754","PictureMapping","PictureMapping","PictureMapping",7,"1",7,"Test","buttonA","response_text_area",25180.34,NA,NA,"CH",NA,"BotoxPictureMapping",NA
"4",1604569825218,1,"05/11/2020 10:50:25","BLIND",2409999,NA,"complete",NA,"5fa3c8382f35860107f38c45","computer","Desktop or Laptop","Windows 10","Chrome 86.0.4240.111","1536x864","1536x754","PictureMapping","PictureMapping","PictureMapping",3,"1",3,"IntroPictureMapping","advancementZone","continue_keyboard",25180.34,NA,NA,"",NA,"BetonPictureMapping",NA
"40",1604570471040,1,"05/11/2020 11:01:11","BLIND",2409999,NA,"complete",NA,"5fa3c8382f35860107f38c45","computer","Desktop or Laptop","Windows 10","Chrome 86.0.4240.111","1536x864","1536x754","PictureMapping","PictureMapping","PictureMapping",7,"1",7,"Test","buttonB","continue_button",25180.34,NA,NA,"",NA,"BotoxPictureMapping",NA
"41",1604570471752,1,"05/11/2020 11:01:11","BLIND",2409999,NA,"complete",NA,"5fa3c8382f35860107f38c45","computer","Desktop or Laptop","Windows 10","Chrome 86.0.4240.111","1536x864","1536x754","PictureMapping","PictureMapping","PictureMapping",8,"4",1,"ReadyForNext","advancementZone","continue_button",25180.34,NA,NA,"",NA,"ReadyForNextTextScreen",NA
"42",1604570533041,1,"05/11/2020 11:02:13","BLIND",2409999,NA,"complete",NA,"5fa3c8382f35860107f38c45","computer","Desktop or Laptop","Windows 10","Chrome 86.0.4240.111","1536x864","1536x754","PictureMapping","PictureMapping","PictureMapping",9,"1",1,"Text","advancementZone","continue_button",25180.34,NA,NA,"",NA,"MuziekPictureMapping",NA
"43",1604570534533,1,"05/11/2020 11:02:14","BLIND",2409999,NA,"complete",NA,"5fa3c8382f35860107f38c45","computer","Desktop or Laptop","Windows 10","Chrome 86.0.4240.111","1536x864","1536x754","PictureMapping","PictureMapping","PictureMapping",9,"1",2,"JoL1","Three","response_button_text",25180.34,NA,NA,"1",1,"MuziekPictureMapping",NA
"44",1604570536615,1,"05/11/2020 11:02:16","BLIND",2409999,NA,"complete",NA,"5fa3c8382f35860107f38c45","computer","Desktop or Laptop","Windows 10","Chrome 86.0.4240.111","1536x864","1536x754","PictureMapping","PictureMapping","PictureMapping",9,"1",3,"IntroPictureMapping","advancementZone","continue_keyboard",25180.34,NA,NA,"",NA,"MuziekPictureMapping",NA
"45",1604570626612,1,"05/11/2020 11:03:46","BLIND",2409999,NA,"complete",NA,"5fa3c8382f35860107f38c45","computer","Desktop or Laptop","Windows 10","Chrome 86.0.4240.111","1536x864","1536x754","PictureMapping","PictureMapping","PictureMapping",9,"1",4,"PictureMapping","advancementZone","response_text_entry",25180.34,NA,NA,"3",NA,"MuziekPictureMapping",NA
"46",1604570626614,1,"05/11/2020 11:03:46","BLIND",2409999,NA,"complete",NA,"5fa3c8382f35860107f38c45","computer","Desktop or Laptop","Windows 10","Chrome 86.0.4240.111","1536x864","1536x754","PictureMapping","PictureMapping","PictureMapping",9,"1",4,"PictureMapping","Timer","timelimit_screen",25180.34,NA,NA,"",NA,"MuziekPictureMapping",NA
"47",1604570629817,1,"05/11/2020 11:03:49","BLIND",2409999,NA,"complete",NA,"5fa3c8382f35860107f38c45","computer","Desktop or Laptop","Windows 10","Chrome 86.0.4240.111","1536x864","1536x754","PictureMapping","PictureMapping","PictureMapping",9,"1",5,"JoL2","Two","response_button_text",25180.34,NA,NA,"1",1,"MuziekPictureMapping",NA
"48",1604570630993,1,"05/11/2020 11:03:50","BLIND",2409999,NA,"complete",NA,"5fa3c8382f35860107f38c45","computer","Desktop or Laptop","Windows 10","Chrome 86.0.4240.111","1536x864","1536x754","PictureMapping","PictureMapping","PictureMapping",9,"1",6,"InstructieToets","advancementZone","continue_button",25180.34,NA,NA,"",NA,"MuziekPictureMapping",NA
"49",1604570688350,1,"05/11/2020 11:04:48","BLIND",2409999,NA,"complete",NA,"5fa3c8382f35860107f38c45","computer","Desktop or Laptop","Windows 10","Chrome 86.0.4240.111","1536x864","1536x754","PictureMapping","PictureMapping","PictureMapping",9,"1",7,"Test","buttonA","response_text_area",25180.34,NA,NA,"FEqb",NA,"MuziekPictureMapping",NA
"5",1604569865355,1,"05/11/2020 10:51:05","BLIND",2409999,NA,"complete",NA,"5fa3c8382f35860107f38c45","computer","Desktop or Laptop","Windows 10","Chrome 86.0.4240.111","1536x864","1536x754","PictureMapping","PictureMapping","PictureMapping",3,"1",4,"PictureMapping","advancementZone","response_text_entry",25180.34,NA,NA,"3",NA,"BetonPictureMapping",NA
"50",1604570688351,1,"05/11/2020 11:04:48","BLIND",2409999,NA,"complete",NA,"5fa3c8382f35860107f38c45","computer","Desktop or Laptop","Windows 10","Chrome 86.0.4240.111","1536x864","1536x754","PictureMapping","PictureMapping","PictureMapping",9,"1",7,"Test","buttonB","continue_button",25180.34,NA,NA,"",NA,"MuziekPictureMapping",NA
"51",1604570689076,1,"05/11/2020 11:04:49","BLIND",2409999,NA,"complete",NA,"5fa3c8382f35860107f38c45","computer","Desktop or Laptop","Windows 10","Chrome 86.0.4240.111","1536x864","1536x754","PictureMapping","PictureMapping","PictureMapping",10,"5",1,"ReadyForNext","advancementZone","continue_button",25180.34,NA,NA,"",NA,"ReadyForNextTextScreen",NA
"52",1604570743309,1,"05/11/2020 11:05:43","BLIND",2409999,NA,"complete",NA,"5fa3c8382f35860107f38c45","computer","Desktop or Laptop","Windows 10","Chrome 86.0.4240.111","1536x864","1536x754","PictureMapping","PictureMapping","PictureMapping",11,"1",1,"Text","advancementZone","continue_button",25180.34,NA,NA,"",NA,"GeldPictureMapping",NA
"53",1604570744665,1,"05/11/2020 11:05:44","BLIND",2409999,NA,"complete",NA,"5fa3c8382f35860107f38c45","computer","Desktop or Laptop","Windows 10","Chrome 86.0.4240.111","1536x864","1536x754","PictureMapping","PictureMapping","PictureMapping",11,"1",2,"JoL1","Two","response_button_text",25180.34,NA,NA,"1",1,"GeldPictureMapping",NA
"54",1604570745699,1,"05/11/2020 11:05:45","BLIND",2409999,NA,"complete",NA,"5fa3c8382f35860107f38c45","computer","Desktop or Laptop","Windows 10","Chrome 86.0.4240.111","1536x864","1536x754","PictureMapping","PictureMapping","PictureMapping",11,"1",3,"IntroPictureMapping","advancementZone","continue_keyboard",25180.34,NA,NA,"",NA,"GeldPictureMapping",NA
"55",1604570835691,1,"05/11/2020 11:07:15","BLIND",2409999,NA,"complete",NA,"5fa3c8382f35860107f38c45","computer","Desktop or Laptop","Windows 10","Chrome 86.0.4240.111","1536x864","1536x754","PictureMapping","PictureMapping","PictureMapping",11,"1",4,"PictureMapping","advancementZone","response_text_entry",25180.34,NA,NA,"3",NA,"GeldPictureMapping",NA
"56",1604570835693,1,"05/11/2020 11:07:15","BLIND",2409999,NA,"complete",NA,"5fa3c8382f35860107f38c45","computer","Desktop or Laptop","Windows 10","Chrome 86.0.4240.111","1536x864","1536x754","PictureMapping","PictureMapping","PictureMapping",11,"1",4,"PictureMapping","Timer","timelimit_screen",25180.34,NA,NA,"",NA,"GeldPictureMapping",NA
"57",1604570837949,1,"05/11/2020 11:07:17","BLIND",2409999,NA,"complete",NA,"5fa3c8382f35860107f38c45","computer","Desktop or Laptop","Windows 10","Chrome 86.0.4240.111","1536x864","1536x754","PictureMapping","PictureMapping","PictureMapping",11,"1",5,"JoL2","One","response_button_text",25180.34,NA,NA,"1",1,"GeldPictureMapping",NA
"58",1604570839469,1,"05/11/2020 11:07:19","BLIND",2409999,NA,"complete",NA,"5fa3c8382f35860107f38c45","computer","Desktop or Laptop","Windows 10","Chrome 86.0.4240.111","1536x864","1536x754","PictureMapping","PictureMapping","PictureMapping",11,"1",6,"ToetsInstructie","advancementZone","continue_button",25180.34,NA,NA,"",NA,"GeldPictureMapping",NA
"59",1604570913738,1,"05/11/2020 11:08:33","BLIND",2409999,NA,"complete",NA,"5fa3c8382f35860107f38c45","computer","Desktop or Laptop","Windows 10","Chrome 86.0.4240.111","1536x864","1536x754","PictureMapping","PictureMapping","PictureMapping",11,"1",7,"Test","buttonA","response_text_area",25180.34,NA,NA,"lCaDnfvD",NA,"GeldPictureMapping",NA
"6",1604569865358,1,"05/11/2020 10:51:05","BLIND",2409999,NA,"complete",NA,"5fa3c8382f35860107f38c45","computer","Desktop or Laptop","Windows 10","Chrome 86.0.4240.111","1536x864","1536x754","PictureMapping","PictureMapping","PictureMapping",3,"1",4,"PictureMapping","Zone1","continue_button",25180.34,NA,NA,"",NA,"BetonPictureMapping",NA
"60",1604570913740,1,"05/11/2020 11:08:33","BLIND",2409999,NA,"complete",NA,"5fa3c8382f35860107f38c45","computer","Desktop or Laptop","Windows 10","Chrome 86.0.4240.111","1536x864","1536x754","PictureMapping","PictureMapping","PictureMapping",11,"1",7,"Test","buttonB","continue_button",25180.34,NA,NA,"",NA,"GeldPictureMapping",NA
"61",1604570913745,1,"05/11/2020 11:08:33","BLIND",2409999,NA,"complete",NA,"5fa3c8382f35860107f38c45","computer","Desktop or Laptop","Windows 10","Chrome 86.0.4240.111","1536x864","1536x754","PictureMapping","PictureMapping","",NA,"END TASK",NA,"","","",1152683,NA,NA,"",NA,"",NA
"7",1604569866545,1,"05/11/2020 10:51:06","BLIND",2409999,NA,"complete",NA,"5fa3c8382f35860107f38c45","computer","Desktop or Laptop","Windows 10","Chrome 86.0.4240.111","1536x864","1536x754","PictureMapping","PictureMapping","PictureMapping",3,"1",5,"JoL2","Two","response_button_text",25180.34,NA,NA,"1",1,"BetonPictureMapping",NA
"8",1604569868017,1,"05/11/2020 10:51:08","BLIND",2409999,NA,"complete",NA,"5fa3c8382f35860107f38c45","computer","Desktop or Laptop","Windows 10","Chrome 86.0.4240.111","1536x864","1536x754","PictureMapping","PictureMapping","PictureMapping",3,"1",6,"InstructieToets","advancementZone","continue_button",25180.34,NA,NA,"",NA,"BetonPictureMapping",NA
"9",1604569939702,1,"05/11/2020 10:52:19","BLIND",2409999,NA,"complete",NA,"5fa3c8382f35860107f38c45","computer","Desktop or Laptop","Windows 10","Chrome 86.0.4240.111","1536x864","1536x754","PictureMapping","PictureMapping","PictureMapping",3,"1",7,"Test","buttonA","response_text_area",25180.34,NA,NA,"LoqTFU",NA,"BetonPictureMapping",NA
"1",1604687813993,1,"06/11/2020 19:36:53","BLIND",2545370,NA,"complete",NA,"5fa59670ded6100c43392030","computer","Desktop or Laptop","Windows 10","Chrome 86.0.4240.183","1280x720","1280x578","PictureMapping","PictureMapping","",NA,"BEGIN TASK",NA,"","","",NA,NA,NA,"",NA,"",NA
"10",1604687950805,1,"06/11/2020 19:39:10","BLIND",2545370,NA,"complete",NA,"5fa59670ded6100c43392030","computer","Desktop or Laptop","Windows 10","Chrome 86.0.4240.183","1280x720","1280x578","PictureMapping","PictureMapping","PictureMapping",5,"1",7,"Test","buttonB","continue_button",25180.34,NA,NA,"",NA,"SuezPictureMapping",NA
"11",1604689721766,1,"06/11/2020 20:08:41","BLIND",2545370,NA,"complete",NA,"5fa59670ded6100c43392030","computer","Desktop or Laptop","Windows 10","Chrome 86.0.4240.183","1280x720","1280x578","PictureMapping","PictureMapping","PictureMapping",2,"1",1,"ReadyForNext","advancementZone","continue_button",25180.34,NA,NA,"",NA,"ReadyForNextTextScreen",NA
"12",1604689802485,1,"06/11/2020 20:10:02","BLIND",2545370,NA,"complete",NA,"5fa59670ded6100c43392030","computer","Desktop or Laptop","Windows 10","Chrome 86.0.4240.183","1280x720","1280x578","PictureMapping","PictureMapping","PictureMapping",7,"1",1,"Text","advancementZone","continue_button",25180.34,NA,NA,"",NA,"BotoxPictureMapping",NA
"13",1604689805180,1,"06/11/2020 20:10:05","BLIND",2545370,NA,"complete",NA,"5fa59670ded6100c43392030","computer","Desktop or Laptop","Windows 10","Chrome 86.0.4240.183","1280x720","1280x578","PictureMapping","PictureMapping","PictureMapping",7,"1",2,"JoL1","Three","response_button_text",25180.34,NA,NA,"1",1,"BotoxPictureMapping",NA
"14",1604689807349,1,"06/11/2020 20:10:07","BLIND",2545370,NA,"complete",NA,"5fa59670ded6100c43392030","computer","Desktop or Laptop","Windows 10","Chrome 86.0.4240.183","1280x720","1280x578","PictureMapping","PictureMapping","PictureMapping",7,"1",3,"IntroPictureMapping","advancementZone","continue_keyboard",25180.34,NA,NA,"",NA,"BotoxPictureMapping",NA
"15",1604689832192,1,"06/11/2020 20:10:32","BLIND",2545370,NA,"complete",NA,"5fa59670ded6100c43392030","computer","Desktop or Laptop","Windows 10","Chrome 86.0.4240.183","1280x720","1280x578","PictureMapping","PictureMapping","PictureMapping",7,"1",4,"PictureMapping","advancementZone","response_text_entry",25180.34,NA,NA,"5",NA,"BotoxPictureMapping",NA
"16",1604689832194,1,"06/11/2020 20:10:32","BLIND",2545370,NA,"complete",NA,"5fa59670ded6100c43392030","computer","Desktop or Laptop","Windows 10","Chrome 86.0.4240.183","1280x720","1280x578","PictureMapping","PictureMapping","PictureMapping",7,"1",4,"PictureMapping","Zone1","continue_button",25180.34,NA,NA,"",NA,"BotoxPictureMapping",NA
"17",1604689834154,1,"06/11/2020 20:10:34","BLIND",2545370,NA,"complete",NA,"5fa59670ded6100c43392030","computer","Desktop or Laptop","Windows 10","Chrome 86.0.4240.183","1280x720","1280x578","PictureMapping","PictureMapping","PictureMapping",7,"1",5,"JoL2","Two","response_button_text",25180.34,NA,NA,"1",1,"BotoxPictureMapping",NA
"18",1604689836105,1,"06/11/2020 20:10:36","BLIND",2545370,NA,"complete",NA,"5fa59670ded6100c43392030","computer","Desktop or Laptop","Windows 10","Chrome 86.0.4240.183","1280x720","1280x578","PictureMapping","PictureMapping","PictureMapping",7,"1",6,"InstructieToets","advancementZone","continue_button",25180.34,NA,NA,"",NA,"BotoxPictureMapping",NA
"19",1604689940372,1,"06/11/2020 20:12:20","BLIND",2545370,NA,"complete",NA,"5fa59670ded6100c43392030","computer","Desktop or Laptop","Windows 10","Chrome 86.0.4240.183","1280x720","1280x578","PictureMapping","PictureMapping","PictureMapping",7,"1",7,"Test","buttonA","response_text_area",25180.34,NA,NA,"vs9vnjfG",NA,"BotoxPictureMapping",NA
"2",1604687850721,1,"06/11/2020 19:37:30","BLIND",2545370,NA,"complete",NA,"5fa59670ded6100c43392030","computer","Desktop or Laptop","Windows 10","Chrome 86.0.4240.183","1280x720","1280x578","PictureMapping","PictureMapping","PictureMapping",5,"1",1,"Text","advancementZone","continue_button",25180.34,NA,NA,"",NA,"SuezPictureMapping",NA
"20",1604689940374,1,"06/11/2020 20:12:20","BLIND",2545370,NA,"complete",NA,"5fa59670ded6100c43392030","computer","Desktop or Laptop","Windows 10","Chrome 86.0.4240.183","1280x720","1280x578","PictureMapping","PictureMapping","PictureMapping",7,"1",7,"Test","buttonB","continue_button",25180.34,NA,NA,"",NA,"BotoxPictureMapping",NA
"21",1604689953455,1,"06/11/2020 20:12:33","BLIND",2545370,NA,"complete",NA,"5fa59670ded6100c43392030","computer","Desktop or Laptop","Windows 10","Chrome 86.0.4240.183","1280x720","1280x578","PictureMapping","PictureMapping","PictureMapping",4,"2",1,"ReadyForNext","advancementZone","continue_button",25180.34,NA,NA,"",NA,"ReadyForNextTextScreen",NA
"22",1604690007988,1,"06/11/2020 20:13:27","BLIND",2545370,NA,"complete",NA,"5fa59670ded6100c43392030","computer","Desktop or Laptop","Windows 10","Chrome 86.0.4240.183","1280x720","1280x578","PictureMapping","PictureMapping","PictureMapping",9,"1",1,"Text","advancementZone","continue_button",25180.34,NA,NA,"",NA,"MuziekPictureMapping",NA
"23",1604690009612,1,"06/11/2020 20:13:29","BLIND",2545370,NA,"complete",NA,"5fa59670ded6100c43392030","computer","Desktop or Laptop","Windows 10","Chrome 86.0.4240.183","1280x720","1280x578","PictureMapping","PictureMapping","PictureMapping",9,"1",2,"JoL1","One","response_button_text",25180.34,NA,NA,"1",1,"MuziekPictureMapping",NA
"24",1604690014391,1,"06/11/2020 20:13:34","BLIND",2545370,NA,"complete",NA,"5fa59670ded6100c43392030","computer","Desktop or Laptop","Windows 10","Chrome 86.0.4240.183","1280x720","1280x578","PictureMapping","PictureMapping","PictureMapping",9,"1",3,"IntroPictureMapping","advancementZone","continue_keyboard",25180.34,NA,NA,"",NA,"MuziekPictureMapping",NA
"25",1604690051347,1,"06/11/2020 20:14:11","BLIND",2545370,NA,"complete",NA,"5fa59670ded6100c43392030","computer","Desktop or Laptop","Windows 10","Chrome 86.0.4240.183","1280x720","1280x578","PictureMapping","PictureMapping","PictureMapping",9,"1",4,"PictureMapping","advancementZone","response_text_entry",25180.34,NA,NA,"3",NA,"MuziekPictureMapping",NA
"26",1604690051349,1,"06/11/2020 20:14:11","BLIND",2545370,NA,"complete",NA,"5fa59670ded6100c43392030","computer","Desktop or Laptop","Windows 10","Chrome 86.0.4240.183","1280x720","1280x578","PictureMapping","PictureMapping","PictureMapping",9,"1",4,"PictureMapping","Zone1","continue_button",25180.34,NA,NA,"",NA,"MuziekPictureMapping",NA
"27",1604690052884,1,"06/11/2020 20:14:12","BLIND",2545370,NA,"complete",NA,"5fa59670ded6100c43392030","computer","Desktop or Laptop","Windows 10","Chrome 86.0.4240.183","1280x720","1280x578","PictureMapping","PictureMapping","PictureMapping",9,"1",5,"JoL2","One","response_button_text",25180.34,NA,NA,"1",1,"MuziekPictureMapping",NA
"28",1604690054638,1,"06/11/2020 20:14:14","BLIND",2545370,NA,"complete",NA,"5fa59670ded6100c43392030","computer","Desktop or Laptop","Windows 10","Chrome 86.0.4240.183","1280x720","1280x578","PictureMapping","PictureMapping","PictureMapping",9,"1",6,"InstructieToets","advancementZone","continue_button",25180.34,NA,NA,"",NA,"MuziekPictureMapping",NA
"29",1604690064615,1,"06/11/2020 20:14:24","BLIND",2545370,NA,"complete",NA,"5fa59670ded6100c43392030","computer","Desktop or Laptop","Windows 10","Chrome 86.0.4240.183","1280x720","1280x578","PictureMapping","PictureMapping","PictureMapping",9,"1",7,"Test","buttonA","response_text_area",25180.34,NA,NA,"?",NA,"MuziekPictureMapping",NA
"3",1604687852663,1,"06/11/2020 19:37:32","BLIND",2545370,NA,"complete",NA,"5fa59670ded6100c43392030","computer","Desktop or Laptop","Windows 10","Chrome 86.0.4240.183","1280x720","1280x578","PictureMapping","PictureMapping","PictureMapping",5,"1",2,"JoL1","Two","response_button_text",25180.34,NA,NA,"1",1,"SuezPictureMapping",NA
"30",1604690064617,1,"06/11/2020 20:14:24","BLIND",2545370,NA,"complete",NA,"5fa59670ded6100c43392030","computer","Desktop or Laptop","Windows 10","Chrome 86.0.4240.183","1280x720","1280x578","PictureMapping","PictureMapping","PictureMapping",9,"1",7,"Test","buttonB","continue_button",25180.34,NA,NA,"",NA,"MuziekPictureMapping",NA
"31",1604690065728,1,"06/11/2020 20:14:25","BLIND",2545370,NA,"complete",NA,"5fa59670ded6100c43392030","computer","Desktop or Laptop","Windows 10","Chrome 86.0.4240.183","1280x720","1280x578","PictureMapping","PictureMapping","PictureMapping",6,"3",1,"ReadyForNext","advancementZone","continue_button",25180.34,NA,NA,"",NA,"ReadyForNextTextScreen",NA
"32",1604690108368,1,"06/11/2020 20:15:08","BLIND",2545370,NA,"complete",NA,"5fa59670ded6100c43392030","computer","Desktop or Laptop","Windows 10","Chrome 86.0.4240.183","1280x720","1280x578","PictureMapping","PictureMapping","PictureMapping",11,"1",1,"Text","advancementZone","continue_button",25180.34,NA,NA,"",NA,"GeldPictureMapping",NA
"33",1604690110005,1,"06/11/2020 20:15:10","BLIND",2545370,NA,"complete",NA,"5fa59670ded6100c43392030","computer","Desktop or Laptop","Windows 10","Chrome 86.0.4240.183","1280x720","1280x578","PictureMapping","PictureMapping","PictureMapping",11,"1",2,"JoL1","Two","response_button_text",25180.34,NA,NA,"1",1,"GeldPictureMapping",NA
"34",1604690111785,1,"06/11/2020 20:15:11","BLIND",2545370,NA,"complete",NA,"5fa59670ded6100c43392030","computer","Desktop or Laptop","Windows 10","Chrome 86.0.4240.183","1280x720","1280x578","PictureMapping","PictureMapping","PictureMapping",11,"1",3,"IntroPictureMapping","advancementZone","continue_keyboard",25180.34,NA,NA,"",NA,"GeldPictureMapping",NA
"35",1604690144452,1,"06/11/2020 20:15:44","BLIND",2545370,NA,"complete",NA,"5fa59670ded6100c43392030","computer","Desktop or Laptop","Windows 10","Chrome 86.0.4240.183","1280x720","1280x578","PictureMapping","PictureMapping","PictureMapping",11,"1",4,"PictureMapping","advancementZone","response_text_entry",25180.34,NA,NA,"4",NA,"GeldPictureMapping",NA
"36",1604690144453,1,"06/11/2020 20:15:44","BLIND",2545370,NA,"complete",NA,"5fa59670ded6100c43392030","computer","Desktop or Laptop","Windows 10","Chrome 86.0.4240.183","1280x720","1280x578","PictureMapping","PictureMapping","PictureMapping",11,"1",4,"PictureMapping","Zone1","continue_button",25180.34,NA,NA,"",NA,"GeldPictureMapping",NA
"37",1604690147027,1,"06/11/2020 20:15:47","BLIND",2545370,NA,"complete",NA,"5fa59670ded6100c43392030","computer","Desktop or Laptop","Windows 10","Chrome 86.0.4240.183","1280x720","1280x578","PictureMapping","PictureMapping","PictureMapping",11,"1",5,"JoL2","Two","response_button_text",25180.34,NA,NA,"1",1,"GeldPictureMapping",NA
"38",1604690150162,1,"06/11/2020 20:15:50","BLIND",2545370,NA,"complete",NA,"5fa59670ded6100c43392030","computer","Desktop or Laptop","Windows 10","Chrome 86.0.4240.183","1280x720","1280x578","PictureMapping","PictureMapping","PictureMapping",11,"1",6,"ToetsInstructie","advancementZone","continue_button",25180.34,NA,NA,"",NA,"GeldPictureMapping",NA
"39",1604690187168,1,"06/11/2020 20:16:27","BLIND",2545370,NA,"complete",NA,"5fa59670ded6100c43392030","computer","Desktop or Laptop","Windows 10","Chrome 86.0.4240.183","1280x720","1280x578","PictureMapping","PictureMapping","PictureMapping",11,"1",7,"Test","buttonA","response_text_area",25180.34,NA,NA,"HinsT4qhuz",NA,"GeldPictureMapping",NA
"4",1604687854822,1,"06/11/2020 19:37:34","BLIND",2545370,NA,"complete",NA,"5fa59670ded6100c43392030","computer","Desktop or Laptop","Windows 10","Chrome 86.0.4240.183","1280x720","1280x578","PictureMapping","PictureMapping","PictureMapping",5,"1",3,"IntroPictureMapping","advancementZone","continue_keyboard",25180.34,NA,NA,"",NA,"SuezPictureMapping",NA
"40",1604690187169,1,"06/11/2020 20:16:27","BLIND",2545370,NA,"complete",NA,"5fa59670ded6100c43392030","computer","Desktop or Laptop","Windows 10","Chrome 86.0.4240.183","1280x720","1280x578","PictureMapping","PictureMapping","PictureMapping",11,"1",7,"Test","buttonB","continue_button",25180.34,NA,NA,"",NA,"GeldPictureMapping",NA
"41",1604690189845,1,"06/11/2020 20:16:29","BLIND",2545370,NA,"complete",NA,"5fa59670ded6100c43392030","computer","Desktop or Laptop","Windows 10","Chrome 86.0.4240.183","1280x720","1280x578","PictureMapping","PictureMapping","PictureMapping",8,"4",1,"ReadyForNext","advancementZone","continue_button",25180.34,NA,NA,"",NA,"ReadyForNextTextScreen",NA
"42",1604690259805,1,"06/11/2020 20:17:39","BLIND",2545370,NA,"complete",NA,"5fa59670ded6100c43392030","computer","Desktop or Laptop","Windows 10","Chrome 86.0.4240.183","1280x720","1280x578","PictureMapping","PictureMapping","PictureMapping",1,"1",1,"Text","advancementZone","continue_button",25180.34,NA,NA,"",NA,"MetroPictureMapping",NA
"43",1604690261500,1,"06/11/2020 20:17:41","BLIND",2545370,NA,"complete",NA,"5fa59670ded6100c43392030","computer","Desktop or Laptop","Windows 10","Chrome 86.0.4240.183","1280x720","1280x578","PictureMapping","PictureMapping","PictureMapping",1,"1",2,"JoL1","One","response_button_text",25180.34,NA,NA,"1",1,"MetroPictureMapping",NA
"44",1604690262819,1,"06/11/2020 20:17:42","BLIND",2545370,NA,"complete",NA,"5fa59670ded6100c43392030","computer","Desktop or Laptop","Windows 10","Chrome 86.0.4240.183","1280x720","1280x578","PictureMapping","PictureMapping","PictureMapping",1,"1",3,"IntroPictureMapping","advancementZone","continue_keyboard",25180.34,NA,NA,"",NA,"MetroPictureMapping",NA
"45",1604690288689,1,"06/11/2020 20:18:08","BLIND",2545370,NA,"complete",NA,"5fa59670ded6100c43392030","computer","Desktop or Laptop","Windows 10","Chrome 86.0.4240.183","1280x720","1280x578","PictureMapping","PictureMapping","PictureMapping",1,"1",4,"PictureMapping","advancementZone","response_text_entry",25180.34,NA,NA,"4",NA,"MetroPictureMapping",NA
"46",1604690288690,1,"06/11/2020 20:18:08","BLIND",2545370,NA,"complete",NA,"5fa59670ded6100c43392030","computer","Desktop or Laptop","Windows 10","Chrome 86.0.4240.183","1280x720","1280x578","PictureMapping","PictureMapping","PictureMapping",1,"1",4,"PictureMapping","Zone1","continue_button",25180.34,NA,NA,"",NA,"MetroPictureMapping",NA
"47",1604690291137,1,"06/11/2020 20:18:11","BLIND",2545370,NA,"complete",NA,"5fa59670ded6100c43392030","computer","Desktop or Laptop","Windows 10","Chrome 86.0.4240.183","1280x720","1280x578","PictureMapping","PictureMapping","PictureMapping",1,"1",5,"JoL2","One","response_button_text",25180.34,NA,NA,"1",1,"MetroPictureMapping",NA
"48",1604690294121,1,"06/11/2020 20:18:14","BLIND",2545370,NA,"complete",NA,"5fa59670ded6100c43392030","computer","Desktop or Laptop","Windows 10","Chrome 86.0.4240.183","1280x720","1280x578","PictureMapping","PictureMapping","PictureMapping",1,"1",6,"InstructieToets","advancementZone","continue_button",25180.34,NA,NA,"",NA,"MetroPictureMapping",NA
"49",1604690382698,1,"06/11/2020 20:19:42","BLIND",2545370,NA,"complete",NA,"5fa59670ded6100c43392030","computer","Desktop or Laptop","Windows 10","Chrome 86.0.4240.183","1280x720","1280x578","PictureMapping","PictureMapping","PictureMapping",1,"1",7,"Test","buttonA","response_text_area",25180.34,NA,NA,"8qg",NA,"MetroPictureMapping",NA
"5",1604687873773,1,"06/11/2020 19:37:53","BLIND",2545370,NA,"complete",NA,"5fa59670ded6100c43392030","computer","Desktop or Laptop","Windows 10","Chrome 86.0.4240.183","1280x720","1280x578","PictureMapping","PictureMapping","PictureMapping",5,"1",4,"PictureMapping","advancementZone","response_text_entry",25180.34,NA,NA,"6",NA,"SuezPictureMapping",NA
"50",1604690382699,1,"06/11/2020 20:19:42","BLIND",2545370,NA,"complete",NA,"5fa59670ded6100c43392030","computer","Desktop or Laptop","Windows 10","Chrome 86.0.4240.183","1280x720","1280x578","PictureMapping","PictureMapping","PictureMapping",1,"1",7,"Test","buttonB","continue_button",25180.34,NA,NA,"",NA,"MetroPictureMapping",NA
"51",1604690383818,1,"06/11/2020 20:19:43","BLIND",2545370,NA,"complete",NA,"5fa59670ded6100c43392030","computer","Desktop or Laptop","Windows 10","Chrome 86.0.4240.183","1280x720","1280x578","PictureMapping","PictureMapping","PictureMapping",10,"5",1,"ReadyForNext","advancementZone","continue_button",25180.34,NA,NA,"",NA,"ReadyForNextTextScreen",NA
"52",1604690470488,1,"06/11/2020 20:21:10","BLIND",2545370,NA,"complete",NA,"5fa59670ded6100c43392030","computer","Desktop or Laptop","Windows 10","Chrome 86.0.4240.183","1280x720","1280x578","PictureMapping","PictureMapping","PictureMapping",3,"1",1,"Text","advancementZone","continue_button",25180.34,NA,NA,"",NA,"BetonPictureMapping",NA
"53",1604690472376,1,"06/11/2020 20:21:12","BLIND",2545370,NA,"complete",NA,"5fa59670ded6100c43392030","computer","Desktop or Laptop","Windows 10","Chrome 86.0.4240.183","1280x720","1280x578","PictureMapping","PictureMapping","PictureMapping",3,"1",2,"JoL1","One","response_button_text",25180.34,NA,NA,"1",1,"BetonPictureMapping",NA
"54",1604690473836,1,"06/11/2020 20:21:13","BLIND",2545370,NA,"complete",NA,"5fa59670ded6100c43392030","computer","Desktop or Laptop","Windows 10","Chrome 86.0.4240.183","1280x720","1280x578","PictureMapping","PictureMapping","PictureMapping",3,"1",3,"IntroPictureMapping","advancementZone","continue_keyboard",25180.34,NA,NA,"",NA,"BetonPictureMapping",NA
"55",1604690497916,1,"06/11/2020 20:21:37","BLIND",2545370,NA,"complete",NA,"5fa59670ded6100c43392030","computer","Desktop or Laptop","Windows 10","Chrome 86.0.4240.183","1280x720","1280x578","PictureMapping","PictureMapping","PictureMapping",3,"1",4,"PictureMapping","advancementZone","response_text_entry",25180.34,NA,NA,"3",NA,"BetonPictureMapping",NA
"56",1604690497918,1,"06/11/2020 20:21:37","BLIND",2545370,NA,"complete",NA,"5fa59670ded6100c43392030","computer","Desktop or Laptop","Windows 10","Chrome 86.0.4240.183","1280x720","1280x578","PictureMapping","PictureMapping","PictureMapping",3,"1",4,"PictureMapping","Zone1","continue_button",25180.34,NA,NA,"",NA,"BetonPictureMapping",NA
"57",1604690499133,1,"06/11/2020 20:21:39","BLIND",2545370,NA,"complete",NA,"5fa59670ded6100c43392030","computer","Desktop or Laptop","Windows 10","Chrome 86.0.4240.183","1280x720","1280x578","PictureMapping","PictureMapping","PictureMapping",3,"1",5,"JoL2","One","response_button_text",25180.34,NA,NA,"1",1,"BetonPictureMapping",NA
"58",1604690500522,1,"06/11/2020 20:21:40","BLIND",2545370,NA,"complete",NA,"5fa59670ded6100c43392030","computer","Desktop or Laptop","Windows 10","Chrome 86.0.4240.183","1280x720","1280x578","PictureMapping","PictureMapping","PictureMapping",3,"1",6,"InstructieToets","advancementZone","continue_button",25180.34,NA,NA,"",NA,"BetonPictureMapping",NA
"59",1604690577010,1,"06/11/2020 20:22:57","BLIND",2545370,NA,"complete",NA,"5fa59670ded6100c43392030","computer","Desktop or Laptop","Windows 10","Chrome 86.0.4240.183","1280x720","1280x578","PictureMapping","PictureMapping","PictureMapping",3,"1",7,"Test","buttonA","response_text_area",25180.34,NA,NA,"1Y7p",NA,"BetonPictureMapping",NA
"6",1604687873774,1,"06/11/2020 19:37:53","BLIND",2545370,NA,"complete",NA,"5fa59670ded6100c43392030","computer","Desktop or Laptop","Windows 10","Chrome 86.0.4240.183","1280x720","1280x578","PictureMapping","PictureMapping","PictureMapping",5,"1",4,"PictureMapping","Zone1","continue_button",25180.34,NA,NA,"",NA,"SuezPictureMapping",NA
"60",1604690577012,1,"06/11/2020 20:22:57","BLIND",2545370,NA,"complete",NA,"5fa59670ded6100c43392030","computer","Desktop or Laptop","Windows 10","Chrome 86.0.4240.183","1280x720","1280x578","PictureMapping","PictureMapping","PictureMapping",3,"1",7,"Test","buttonB","continue_button",25180.34,NA,NA,"",NA,"BetonPictureMapping",NA
"61",1604690577013,1,"06/11/2020 20:22:57","BLIND",2545370,NA,"complete",NA,"5fa59670ded6100c43392030","computer","Desktop or Laptop","Windows 10","Chrome 86.0.4240.183","1280x720","1280x578","PictureMapping","PictureMapping","",NA,"END TASK",NA,"","","",2763020,NA,NA,"",NA,"",NA
"7",1604687876701,1,"06/11/2020 19:37:56","BLIND",2545370,NA,"complete",NA,"5fa59670ded6100c43392030","computer","Desktop or Laptop","Windows 10","Chrome 86.0.4240.183","1280x720","1280x578","PictureMapping","PictureMapping","PictureMapping",5,"1",5,"JoL2","Two","response_button_text",25180.34,NA,NA,"1",1,"SuezPictureMapping",NA
"8",1604687878088,1,"06/11/2020 19:37:58","BLIND",2545370,NA,"complete",NA,"5fa59670ded6100c43392030","computer","Desktop or Laptop","Windows 10","Chrome 86.0.4240.183","1280x720","1280x578","PictureMapping","PictureMapping","PictureMapping",5,"1",6,"InstructieToets","advancementZone","continue_button",25180.34,NA,NA,"",NA,"SuezPictureMapping",NA
"9",1604687950803,1,"06/11/2020 19:39:10","BLIND",2545370,NA,"complete",NA,"5fa59670ded6100c43392030","computer","Desktop or Laptop","Windows 10","Chrome 86.0.4240.183","1280x720","1280x578","PictureMapping","PictureMapping","PictureMapping",5,"1",7,"Test","buttonA","response_text_area",25180.34,NA,NA,"QBLv",NA,"SuezPictureMapping",NA
"1",1604243994584,1,"01/11/2020 16:19:54","BLIND",3425604,NA,"complete",NA,"5f9ec072c5870547e2c545c4","computer","Desktop or Laptop","Windows 10","Chrome 86.0.4240.111","1536x864","1536x792","PictureMapping","PictureMapping","",NA,"BEGIN TASK",NA,"","","",NA,NA,NA,"",NA,"",NA
"10",1604244228748,1,"01/11/2020 16:23:48","BLIND",3425604,NA,"complete",NA,"5f9ec072c5870547e2c545c4","computer","Desktop or Laptop","Windows 10","Chrome 86.0.4240.111","1536x864","1536x792","PictureMapping","PictureMapping","PictureMapping",5,"1",7,"Test","buttonB","continue_button",25180.34,NA,NA,"",NA,"SuezPictureMapping",NA
"11",1604244231602,1,"01/11/2020 16:23:51","BLIND",3425604,NA,"complete",NA,"5f9ec072c5870547e2c545c4","computer","Desktop or Laptop","Windows 10","Chrome 86.0.4240.111","1536x864","1536x792","PictureMapping","PictureMapping","PictureMapping",2,"1",1,"ReadyForNext","advancementZone","continue_button",25180.34,NA,NA,"",NA,"ReadyForNextTextScreen",NA
"12",1604244300008,1,"01/11/2020 16:25:00","BLIND",3425604,NA,"complete",NA,"5f9ec072c5870547e2c545c4","computer","Desktop or Laptop","Windows 10","Chrome 86.0.4240.111","1536x864","1536x792","PictureMapping","PictureMapping","PictureMapping",11,"1",1,"Text","advancementZone","continue_button",25180.34,NA,NA,"",NA,"GeldPictureMapping",NA
"13",1604244306343,1,"01/11/2020 16:25:06","BLIND",3425604,NA,"complete",NA,"5f9ec072c5870547e2c545c4","computer","Desktop or Laptop","Windows 10","Chrome 86.0.4240.111","1536x864","1536x792","PictureMapping","PictureMapping","PictureMapping",11,"1",2,"JoL1","Two","response_button_text",25180.34,NA,NA,"1",1,"GeldPictureMapping",NA
"14",1604244307750,1,"01/11/2020 16:25:07","BLIND",3425604,NA,"complete",NA,"5f9ec072c5870547e2c545c4","computer","Desktop or Laptop","Windows 10","Chrome 86.0.4240.111","1536x864","1536x792","PictureMapping","PictureMapping","PictureMapping",11,"1",3,"IntroPictureMapping","advancementZone","continue_keyboard",25180.34,NA,NA,"",NA,"GeldPictureMapping",NA
"15",1604244345531,1,"01/11/2020 16:25:45","BLIND",3425604,NA,"complete",NA,"5f9ec072c5870547e2c545c4","computer","Desktop or Laptop","Windows 10","Chrome 86.0.4240.111","1536x864","1536x792","PictureMapping","PictureMapping","PictureMapping",11,"1",4,"PictureMapping","advancementZone","response_text_entry",25180.34,NA,NA,"3",NA,"GeldPictureMapping",NA
"16",1604244345533,1,"01/11/2020 16:25:45","BLIND",3425604,NA,"complete",NA,"5f9ec072c5870547e2c545c4","computer","Desktop or Laptop","Windows 10","Chrome 86.0.4240.111","1536x864","1536x792","PictureMapping","PictureMapping","PictureMapping",11,"1",4,"PictureMapping","Zone1","continue_button",25180.34,NA,NA,"",NA,"GeldPictureMapping",NA
"17",1604244349372,1,"01/11/2020 16:25:49","BLIND",3425604,NA,"complete",NA,"5f9ec072c5870547e2c545c4","computer","Desktop or Laptop","Windows 10","Chrome 86.0.4240.111","1536x864","1536x792","PictureMapping","PictureMapping","PictureMapping",11,"1",5,"JoL2","Two","response_button_text",25180.34,NA,NA,"1",1,"GeldPictureMapping",NA
"18",1604244351249,1,"01/11/2020 16:25:51","BLIND",3425604,NA,"complete",NA,"5f9ec072c5870547e2c545c4","computer","Desktop or Laptop","Windows 10","Chrome 86.0.4240.111","1536x864","1536x792","PictureMapping","PictureMapping","PictureMapping",11,"1",6,"ToetsInstructie","advancementZone","continue_button",25180.34,NA,NA,"",NA,"GeldPictureMapping",NA
"19",1604244630684,1,"01/11/2020 16:30:30","BLIND",3425604,NA,"complete",NA,"5f9ec072c5870547e2c545c4","computer","Desktop or Laptop","Windows 10","Chrome 86.0.4240.111","1536x864","1536x792","PictureMapping","PictureMapping","PictureMapping",11,"1",7,"Test","buttonA","response_text_area",25180.34,NA,NA,"SjiRwn",NA,"GeldPictureMapping",NA
"2",1604244077120,1,"01/11/2020 16:21:17","BLIND",3425604,NA,"complete",NA,"5f9ec072c5870547e2c545c4","computer","Desktop or Laptop","Windows 10","Chrome 86.0.4240.111","1536x864","1536x792","PictureMapping","PictureMapping","PictureMapping",5,"1",1,"Text","advancementZone","continue_button",25180.34,NA,NA,"",NA,"SuezPictureMapping",NA
"20",1604244630690,1,"01/11/2020 16:30:30","BLIND",3425604,NA,"complete",NA,"5f9ec072c5870547e2c545c4","computer","Desktop or Laptop","Windows 10","Chrome 86.0.4240.111","1536x864","1536x792","PictureMapping","PictureMapping","PictureMapping",11,"1",7,"Test","buttonB","continue_button",25180.34,NA,NA,"",NA,"GeldPictureMapping",NA
"21",1604244654593,1,"01/11/2020 16:30:54","BLIND",3425604,NA,"complete",NA,"5f9ec072c5870547e2c545c4","computer","Desktop or Laptop","Windows 10","Chrome 86.0.4240.111","1536x864","1536x792","PictureMapping","PictureMapping","PictureMapping",4,"2",1,"ReadyForNext","advancementZone","continue_button",25180.34,NA,NA,"",NA,"ReadyForNextTextScreen",NA
"22",1604244765492,1,"01/11/2020 16:32:45","BLIND",3425604,NA,"complete",NA,"5f9ec072c5870547e2c545c4","computer","Desktop or Laptop","Windows 10","Chrome 86.0.4240.111","1536x864","1536x792","PictureMapping","PictureMapping","PictureMapping",1,"1",1,"Text","advancementZone","continue_button",25180.34,NA,NA,"",NA,"MetroPictureMapping",NA
"23",1604244767702,1,"01/11/2020 16:32:47","BLIND",3425604,NA,"complete",NA,"5f9ec072c5870547e2c545c4","computer","Desktop or Laptop","Windows 10","Chrome 86.0.4240.111","1536x864","1536x792","PictureMapping","PictureMapping","PictureMapping",1,"1",2,"JoL1","Two","response_button_text",25180.34,NA,NA,"1",1,"MetroPictureMapping",NA
"24",1604244768965,1,"01/11/2020 16:32:48","BLIND",3425604,NA,"complete",NA,"5f9ec072c5870547e2c545c4","computer","Desktop or Laptop","Windows 10","Chrome 86.0.4240.111","1536x864","1536x792","PictureMapping","PictureMapping","PictureMapping",1,"1",3,"IntroPictureMapping","advancementZone","continue_keyboard",25180.34,NA,NA,"",NA,"MetroPictureMapping",NA
"25",1604244793979,1,"01/11/2020 16:33:13","BLIND",3425604,NA,"complete",NA,"5f9ec072c5870547e2c545c4","computer","Desktop or Laptop","Windows 10","Chrome 86.0.4240.111","1536x864","1536x792","PictureMapping","PictureMapping","PictureMapping",1,"1",4,"PictureMapping","advancementZone","response_text_entry",25180.34,NA,NA,"3",NA,"MetroPictureMapping",NA
"26",1604244793983,1,"01/11/2020 16:33:13","BLIND",3425604,NA,"complete",NA,"5f9ec072c5870547e2c545c4","computer","Desktop or Laptop","Windows 10","Chrome 86.0.4240.111","1536x864","1536x792","PictureMapping","PictureMapping","PictureMapping",1,"1",4,"PictureMapping","Zone1","continue_button",25180.34,NA,NA,"",NA,"MetroPictureMapping",NA
"27",1604244796250,1,"01/11/2020 16:33:16","BLIND",3425604,NA,"complete",NA,"5f9ec072c5870547e2c545c4","computer","Desktop or Laptop","Windows 10","Chrome 86.0.4240.111","1536x864","1536x792","PictureMapping","PictureMapping","PictureMapping",1,"1",5,"JoL2","Two","response_button_text",25180.34,NA,NA,"1",1,"MetroPictureMapping",NA
"28",1604244797671,1,"01/11/2020 16:33:17","BLIND",3425604,NA,"complete",NA,"5f9ec072c5870547e2c545c4","computer","Desktop or Laptop","Windows 10","Chrome 86.0.4240.111","1536x864","1536x792","PictureMapping","PictureMapping","PictureMapping",1,"1",6,"InstructieToets","advancementZone","continue_button",25180.34,NA,NA,"",NA,"MetroPictureMapping",NA
"29",1604244987311,1,"01/11/2020 16:36:27","BLIND",3425604,NA,"complete",NA,"5f9ec072c5870547e2c545c4","computer","Desktop or Laptop","Windows 10","Chrome 86.0.4240.111","1536x864","1536x792","PictureMapping","PictureMapping","PictureMapping",1,"1",7,"Test","buttonA","response_text_area",25180.34,NA,NA,"qkAERl7",NA,"MetroPictureMapping",NA
"3",1604244079974,1,"01/11/2020 16:21:19","BLIND",3425604,NA,"complete",NA,"5f9ec072c5870547e2c545c4","computer","Desktop or Laptop","Windows 10","Chrome 86.0.4240.111","1536x864","1536x792","PictureMapping","PictureMapping","PictureMapping",5,"1",2,"JoL1","Two","response_button_text",25180.34,NA,NA,"1",1,"SuezPictureMapping",NA
"30",1604244987323,1,"01/11/2020 16:36:27","BLIND",3425604,NA,"complete",NA,"5f9ec072c5870547e2c545c4","computer","Desktop or Laptop","Windows 10","Chrome 86.0.4240.111","1536x864","1536x792","PictureMapping","PictureMapping","PictureMapping",1,"1",7,"Test","buttonB","continue_button",25180.34,NA,NA,"",NA,"MetroPictureMapping",NA
"31",1604244999221,1,"01/11/2020 16:36:39","BLIND",3425604,NA,"complete",NA,"5f9ec072c5870547e2c545c4","computer","Desktop or Laptop","Windows 10","Chrome 86.0.4240.111","1536x864","1536x792","PictureMapping","PictureMapping","PictureMapping",6,"3",1,"ReadyForNext","advancementZone","continue_button",25180.34,NA,NA,"",NA,"ReadyForNextTextScreen",NA
"32",1604245097503,1,"01/11/2020 16:38:17","BLIND",3425604,NA,"complete",NA,"5f9ec072c5870547e2c545c4","computer","Desktop or Laptop","Windows 10","Chrome 86.0.4240.111","1536x864","1536x792","PictureMapping","PictureMapping","PictureMapping",7,"1",1,"Text","advancementZone","continue_button",25180.34,NA,NA,"",NA,"BotoxPictureMapping",NA
"33",1604245099361,1,"01/11/2020 16:38:19","BLIND",3425604,NA,"complete",NA,"5f9ec072c5870547e2c545c4","computer","Desktop or Laptop","Windows 10","Chrome 86.0.4240.111","1536x864","1536x792","PictureMapping","PictureMapping","PictureMapping",7,"1",2,"JoL1","One","response_button_text",25180.34,NA,NA,"1",1,"BotoxPictureMapping",NA
"34",1604245100408,1,"01/11/2020 16:38:20","BLIND",3425604,NA,"complete",NA,"5f9ec072c5870547e2c545c4","computer","Desktop or Laptop","Windows 10","Chrome 86.0.4240.111","1536x864","1536x792","PictureMapping","PictureMapping","PictureMapping",7,"1",3,"IntroPictureMapping","advancementZone","continue_keyboard",25180.34,NA,NA,"",NA,"BotoxPictureMapping",NA
"35",1604245118691,1,"01/11/2020 16:38:38","BLIND",3425604,NA,"complete",NA,"5f9ec072c5870547e2c545c4","computer","Desktop or Laptop","Windows 10","Chrome 86.0.4240.111","1536x864","1536x792","PictureMapping","PictureMapping","PictureMapping",7,"1",4,"PictureMapping","advancementZone","response_text_entry",25180.34,NA,NA,"4",NA,"BotoxPictureMapping",NA
"36",1604245118693,1,"01/11/2020 16:38:38","BLIND",3425604,NA,"complete",NA,"5f9ec072c5870547e2c545c4","computer","Desktop or Laptop","Windows 10","Chrome 86.0.4240.111","1536x864","1536x792","PictureMapping","PictureMapping","PictureMapping",7,"1",4,"PictureMapping","Zone1","continue_button",25180.34,NA,NA,"",NA,"BotoxPictureMapping",NA
"37",1604245122787,1,"01/11/2020 16:38:42","BLIND",3425604,NA,"complete",NA,"5f9ec072c5870547e2c545c4","computer","Desktop or Laptop","Windows 10","Chrome 86.0.4240.111","1536x864","1536x792","PictureMapping","PictureMapping","PictureMapping",7,"1",5,"JoL2","Two","response_button_text",25180.34,NA,NA,"1",1,"BotoxPictureMapping",NA
"38",1604245130249,1,"01/11/2020 16:38:50","BLIND",3425604,NA,"complete",NA,"5f9ec072c5870547e2c545c4","computer","Desktop or Laptop","Windows 10","Chrome 86.0.4240.111","1536x864","1536x792","PictureMapping","PictureMapping","PictureMapping",7,"1",6,"InstructieToets","advancementZone","continue_button",25180.34,NA,NA,"",NA,"BotoxPictureMapping",NA
"39",1604245294603,1,"01/11/2020 16:41:34","BLIND",3425604,NA,"complete",NA,"5f9ec072c5870547e2c545c4","computer","Desktop or Laptop","Windows 10","Chrome 86.0.4240.111","1536x864","1536x792","PictureMapping","PictureMapping","PictureMapping",7,"1",7,"Test","buttonA","response_text_area",25180.34,NA,NA,"gi4",NA,"BotoxPictureMapping",NA
"4",1604244082126,1,"01/11/2020 16:21:22","BLIND",3425604,NA,"complete",NA,"5f9ec072c5870547e2c545c4","computer","Desktop or Laptop","Windows 10","Chrome 86.0.4240.111","1536x864","1536x792","PictureMapping","PictureMapping","PictureMapping",5,"1",3,"IntroPictureMapping","advancementZone","continue_keyboard",25180.34,NA,NA,"",NA,"SuezPictureMapping",NA
"40",1604245294606,1,"01/11/2020 16:41:34","BLIND",3425604,NA,"complete",NA,"5f9ec072c5870547e2c545c4","computer","Desktop or Laptop","Windows 10","Chrome 86.0.4240.111","1536x864","1536x792","PictureMapping","PictureMapping","PictureMapping",7,"1",7,"Test","buttonB","continue_button",25180.34,NA,NA,"",NA,"BotoxPictureMapping",NA
"41",1604245296700,1,"01/11/2020 16:41:36","BLIND",3425604,NA,"complete",NA,"5f9ec072c5870547e2c545c4","computer","Desktop or Laptop","Windows 10","Chrome 86.0.4240.111","1536x864","1536x792","PictureMapping","PictureMapping","PictureMapping",8,"4",1,"ReadyForNext","advancementZone","continue_button",25180.34,NA,NA,"",NA,"ReadyForNextTextScreen",NA
"42",1604245367469,1,"01/11/2020 16:42:47","BLIND",3425604,NA,"complete",NA,"5f9ec072c5870547e2c545c4","computer","Desktop or Laptop","Windows 10","Chrome 86.0.4240.111","1536x864","1536x792","PictureMapping","PictureMapping","PictureMapping",9,"1",1,"Text","advancementZone","continue_button",25180.34,NA,NA,"",NA,"MuziekPictureMapping",NA
"43",1604245370394,1,"01/11/2020 16:42:50","BLIND",3425604,NA,"complete",NA,"5f9ec072c5870547e2c545c4","computer","Desktop or Laptop","Windows 10","Chrome 86.0.4240.111","1536x864","1536x792","PictureMapping","PictureMapping","PictureMapping",9,"1",2,"JoL1","Two","response_button_text",25180.34,NA,NA,"1",1,"MuziekPictureMapping",NA
"44",1604245372011,1,"01/11/2020 16:42:52","BLIND",3425604,NA,"complete",NA,"5f9ec072c5870547e2c545c4","computer","Desktop or Laptop","Windows 10","Chrome 86.0.4240.111","1536x864","1536x792","PictureMapping","PictureMapping","PictureMapping",9,"1",3,"IntroPictureMapping","advancementZone","continue_keyboard",25180.34,NA,NA,"",NA,"MuziekPictureMapping",NA
"45",1604245411095,1,"01/11/2020 16:43:31","BLIND",3425604,NA,"complete",NA,"5f9ec072c5870547e2c545c4","computer","Desktop or Laptop","Windows 10","Chrome 86.0.4240.111","1536x864","1536x792","PictureMapping","PictureMapping","PictureMapping",9,"1",4,"PictureMapping","advancementZone","response_text_entry",25180.34,NA,NA,"2",NA,"MuziekPictureMapping",NA
"46",1604245411099,1,"01/11/2020 16:43:31","BLIND",3425604,NA,"complete",NA,"5f9ec072c5870547e2c545c4","computer","Desktop or Laptop","Windows 10","Chrome 86.0.4240.111","1536x864","1536x792","PictureMapping","PictureMapping","PictureMapping",9,"1",4,"PictureMapping","Zone1","continue_button",25180.34,NA,NA,"",NA,"MuziekPictureMapping",NA
"47",1604245413353,1,"01/11/2020 16:43:33","BLIND",3425604,NA,"complete",NA,"5f9ec072c5870547e2c545c4","computer","Desktop or Laptop","Windows 10","Chrome 86.0.4240.111","1536x864","1536x792","PictureMapping","PictureMapping","PictureMapping",9,"1",5,"JoL2","Two","response_button_text",25180.34,NA,NA,"1",1,"MuziekPictureMapping",NA
"48",1604245415387,1,"01/11/2020 16:43:35","BLIND",3425604,NA,"complete",NA,"5f9ec072c5870547e2c545c4","computer","Desktop or Laptop","Windows 10","Chrome 86.0.4240.111","1536x864","1536x792","PictureMapping","PictureMapping","PictureMapping",9,"1",6,"InstructieToets","advancementZone","continue_button",25180.34,NA,NA,"",NA,"MuziekPictureMapping",NA
"49",1604245566401,1,"01/11/2020 16:46:06","BLIND",3425604,NA,"complete",NA,"5f9ec072c5870547e2c545c4","computer","Desktop or Laptop","Windows 10","Chrome 86.0.4240.111","1536x864","1536x792","PictureMapping","PictureMapping","PictureMapping",9,"1",7,"Test","buttonA","response_text_area",25180.34,NA,NA,"7dL",NA,"MuziekPictureMapping",NA
"5",1604244121115,1,"01/11/2020 16:22:01","BLIND",3425604,NA,"complete",NA,"5f9ec072c5870547e2c545c4","computer","Desktop or Laptop","Windows 10","Chrome 86.0.4240.111","1536x864","1536x792","PictureMapping","PictureMapping","PictureMapping",5,"1",4,"PictureMapping","advancementZone","response_text_entry",25180.34,NA,NA,"4",NA,"SuezPictureMapping",NA
"50",1604245566403,1,"01/11/2020 16:46:06","BLIND",3425604,NA,"complete",NA,"5f9ec072c5870547e2c545c4","computer","Desktop or Laptop","Windows 10","Chrome 86.0.4240.111","1536x864","1536x792","PictureMapping","PictureMapping","PictureMapping",9,"1",7,"Test","buttonB","continue_button",25180.34,NA,NA,"",NA,"MuziekPictureMapping",NA
"51",1604245569014,1,"01/11/2020 16:46:09","BLIND",3425604,NA,"complete",NA,"5f9ec072c5870547e2c545c4","computer","Desktop or Laptop","Windows 10","Chrome 86.0.4240.111","1536x864","1536x792","PictureMapping","PictureMapping","PictureMapping",10,"5",1,"ReadyForNext","advancementZone","continue_button",25180.34,NA,NA,"",NA,"ReadyForNextTextScreen",NA
"52",1604245619762,1,"01/11/2020 16:46:59","BLIND",3425604,NA,"complete",NA,"5f9ec072c5870547e2c545c4","computer","Desktop or Laptop","Windows 10","Chrome 86.0.4240.111","1536x864","1536x792","PictureMapping","PictureMapping","PictureMapping",3,"1",1,"Text","advancementZone","continue_button",25180.34,NA,NA,"",NA,"BetonPictureMapping",NA
